Timestamp,accX,accY,accZ
1579011921843,-0.29725647,0.22286987,9.8471985
1579011921847,-0.31163025,0.23245239999999998,9.811278999999999
1579011921853,-0.32119749999999997,0.24681091,9.842407000000001
1579011921858,-0.30444336,0.2252655,9.856766
1579011921863,-0.30444336,0.23245239999999998,9.840012
1579011921868,-0.32119749999999997,0.2252655,9.823257
1579011921872,-0.30204773,0.25160217,9.840012
1579011921877,-0.29006958,0.22766113,9.844803
1579011921882,-0.2924652,0.2252655,9.808883999999999
1579011921887,-0.2924652,0.23724365,9.818466
1579011921893,-0.28529358,0.23005676,9.842407000000001
1579011921898,-0.28289795,0.23005676,9.844803
1579011921904,-0.27571106,0.22766113,9.818466
1579011921909,-0.2924652,0.21090698,9.828049
1579011921914,-0.3283844,0.20611572,9.823257
1579011921919,-0.30444336,0.20851135,9.832825
1579011921923,-0.2709198,0.21330261,9.808883999999999
1579011921928,-0.2996521,0.2204895,9.806488
1579011921934,-0.32359314,0.21090698,9.849594
1579011921938,-0.306839,0.23005676,9.840012
1579011921944,-0.2996521,0.23963928,9.856766
1579011921948,-0.2996521,0.26358032,9.866348
1579011921954,-0.30444336,0.23484802,9.842407000000001
1579011921958,-0.2996521,0.23963928,9.823257
1579011921964,-0.28289795,0.20611572,9.813675
1579011921970,-0.31640625,0.2204895,9.856766
1579011921975,-0.33078003,0.24443054,9.844803
1579011921980,-0.2924652,0.23724365,9.863953
1579011921985,-0.30923462,0.21090698,9.832825
1579011921990,-0.2996521,0.21569824,9.83522
1579011921994,-0.31640625,0.21569824,9.7921295
1579011921999,-0.30204773,0.18696594,9.844803
1579011922004,-0.306839,0.20372010000000002,9.873535
1579011922010,-0.3283844,0.2204895,9.828049
1579011922015,-0.2996521,0.21569824,9.808883999999999
1579011922020,-0.30204773,0.21090698,9.851989999999999
1579011922024,-0.31163025,0.2252655,9.849594
1579011922029,-0.28767395,0.21569824,9.861557000000001
1579011922034,-0.31163025,0.23484802,9.823257
1579011922040,-0.32119749999999997,0.23005676,9.866348
1579011922045,-0.29725647,0.21569824,9.840012
1579011922051,-0.30204773,0.20132446,9.787338
1579011922056,-0.30204773,0.21809387,9.823257
1579011922060,-0.2996521,0.24443054,9.873535
1579011922066,-0.29725647,0.22766113,9.813675
1579011922071,-0.2996521,0.22286987,9.851989999999999
1579011922075,-0.30923462,0.2204895,9.837616
1579011922081,-0.29486084,0.23005676,9.859161
1579011922086,-0.31401062,0.2204895,9.861557000000001
1579011922091,-0.28289795,0.21569824,9.837616
1579011922095,-0.28529358,0.19653320000000002,9.854385
1579011922101,-0.2996521,0.19415283,9.828049
1579011922106,-0.31640625,0.18217468,9.859161
1579011922111,-0.2996521,0.21090698,9.890289
1579011922117,-0.30204773,0.21090698,9.844803
1579011922122,-0.28767395,0.23724365,9.828049
1579011922126,-0.306839,0.23484802,9.811278999999999
1579011922132,-0.2996521,0.2252655,9.789734
1579011922137,-0.3283844,0.20851135,9.8471985
1579011922142,-0.29486084,0.2252655,9.830428999999999
1579011922147,-0.31401062,0.23005676,9.796921000000001
1579011922152,-0.2924652,0.23005676,9.811278999999999
1579011922157,-0.31880188,0.21330261,9.880707000000001
1579011922161,-0.32119749999999997,0.23005676,9.832825
1579011922167,-0.3283844,0.21569824,9.825652999999999
1579011922171,-0.32119749999999997,0.20611572,9.899872
1579011922177,-0.31163025,0.23245239999999998,9.873535
1579011922181,-0.30923462,0.20851135,9.825652999999999
1579011922187,-0.30923462,0.23963928,9.854385
1579011922192,-0.28050232,0.24203491,9.854385
1579011922198,-0.28050232,0.24443054,9.83522
1579011922203,-0.29486084,0.24681091,9.854385
1579011922208,-0.27571106,0.23245239999999998,9.840012
1579011922212,-0.30923462,0.2252655,9.825652999999999
1579011922218,-0.29486084,0.20132446,9.813675
1579011922223,-0.2924652,0.21569824,9.813675
1579011922228,-0.2996521,0.21330261,9.799316000000001
1579011922233,-0.32359314,0.23245239999999998,9.818466
1579011922237,-0.34753418,0.23245239999999998,9.840012
1579011922243,-0.32119749999999997,0.23005676,9.849594
1579011922248,-0.2924652,0.21090698,9.832825
1579011922253,-0.29006958,0.21330261,9.832825
1579011922258,-0.32119749999999997,0.21090698,9.837616
1579011922263,-0.27331543,0.22286987,9.832825
1579011922269,-0.31640625,0.23245239999999998,9.828049
1579011922274,-0.30923462,0.19653320000000002,9.844803
1579011922278,-0.29725647,0.19653320000000002,9.808883999999999
1579011922284,-0.32598877,0.21090698,9.83522
1579011922289,-0.32359314,0.2252655,9.866348
1579011922294,-0.31163025,0.23005676,9.861557000000001
1579011922299,-0.29486084,0.23724365,9.823257
1579011922304,-0.29725647,0.2252655,9.828049
1579011922309,-0.29725647,0.24920654,9.873535
1579011922313,-0.27331543,0.22766113,9.875931
1579011922318,-0.30444336,0.23484802,9.899872
1579011922324,-0.30444336,0.23005676,9.883102000000001
1579011922329,-0.31640625,0.24203491,9.844803
1579011922335,-0.31401062,0.21090698,9.837616
1579011922340,-0.306839,0.21090698,9.861557000000001
1579011922344,-0.30923462,0.24203491,9.844803
1579011922350,-0.33317566,0.24203491,9.851989999999999
1579011922355,-0.28289795,0.22766113,9.756210000000001
1579011922360,-0.2637329,0.26597595,9.703536999999999
1579011922365,-0.31401062,0.2252655,9.823257
1579011922370,-0.34992979999999996,0.21809387,10.029160000000001
1579011922375,-0.31401062,0.21569824,10.002823
1579011922380,-0.31880188,0.22286987,9.765792999999999
1579011922385,-0.32119749999999997,0.20611572,9.619750999999999
1579011922389,-0.33078003,0.24203491,9.753815
1579011922394,-0.31163025,0.22286987,10.007614
1579011922400,-0.31163025,0.2204895,10.086609
1579011922405,-0.30923462,0.23963928,9.873535
1579011922411,-0.306839,0.2204895,9.598206
1579011922416,-0.28529358,0.22286987,9.586227000000001
1579011922420,-0.2781067,0.21809387,9.899872
1579011922425,-0.31880188,0.20851135,10.115341
1579011922430,-0.31401062,0.19892883,10.017180999999999
1579011922435,-0.31880188,0.20372010000000002,9.722702
1579011922441,-0.31401062,0.23005676,9.552703999999999
1579011922446,-0.29006958,0.23484802,9.751434
1579011922451,-0.29725647,0.23484802,10.021973
1579011922456,-0.31880188,0.21809387,9.969299000000001
1579011922461,-0.34513855,0.18696594,9.832825
1579011922466,-0.30444336,0.23245239999999998,9.751434
1579011922471,-0.30444336,0.23005676,9.777771000000001
1579011922475,-0.28050232,0.2252655,9.813675
1579011922482,-0.30204773,0.23963928,9.899872
1579011922487,-0.32598877,0.24203491,9.897476
1579011922492,-0.33557129999999996,0.22286987,9.804092
1579011922496,-0.33557129999999996,0.21569824,9.780151
1579011922501,-0.30444336,0.2252655,9.804092
1579011922507,-0.2996521,0.23963928,9.823257
1579011922512,-0.3283844,0.23484802,9.904663000000001
1579011922517,-0.3283844,0.22286987,9.91423
1579011922522,-0.31880188,0.20372010000000002,9.8471985
1579011922527,-0.28529358,0.22286987,9.799316000000001
1579011922531,-0.2924652,0.21090698,9.804092
1579011922537,-0.2996521,0.20611572,9.830428999999999
1579011922541,-0.2924652,0.21090698,9.854385
1579011922547,-0.31401062,0.23005676,9.873535
1579011922553,-0.29725647,0.21569824,9.828049
1579011922558,-0.2996521,0.22766113,9.813675
1579011922563,-0.2924652,0.22766113,9.816071
1579011922567,-0.29006958,0.20372010000000002,9.844803
1579011922572,-0.28050232,0.2204895,9.863953
1579011922578,-0.2924652,0.20132446,9.849594
1579011922583,-0.31163025,0.22286987,9.837616
1579011922587,-0.31880188,0.23484802,9.7921295
1579011922593,-0.29486084,0.21809387,9.794525
1579011922598,-0.28529358,0.22286987,9.806488
1579011922602,-0.31163025,0.21809387,9.751434
1579011922608,-0.33078003,0.2252655,9.911835
1579011922613,-0.33317566,0.21809387,10.017180999999999
1579011922617,-0.33557129999999996,0.19653320000000002,9.830428999999999
1579011922624,-0.3283844,0.18457031,9.646088
1579011922629,-0.2924652,0.20132446,9.670029
1579011922633,-0.27571106,0.23724365,9.964508
1579011922639,-0.33317566,0.21090698,10.050705
1579011922643,-0.30444336,0.21809387,9.942963
1579011922648,-0.31163025,0.23484802,9.768188
1579011922653,-0.28529358,0.26358032,9.567078
1579011922659,-0.31163025,0.2204895,9.705933
1579011922663,-0.30204773,0.18936157,10.112946
1579011922668,-0.29725647,0.2204895,10.112946
1579011922674,-0.2996521,0.21569824,9.7921295
1579011922679,-0.28529358,0.2252655,9.552703999999999
1579011922684,-0.28767395,0.23724365,9.658050999999999
1579011922688,-0.28529358,0.2204895,9.928604
1579011922693,-0.33078003,0.2252655,10.103378
1579011922699,-0.31640625,0.21569824,9.921417
1579011922704,-0.2996521,0.26358032,9.717911
1579011922710,-0.29486084,0.24443054,9.729874
1579011922715,-0.32359314,0.23245239999999998,9.823257
1579011922719,-0.30923462,0.23484802,9.909439
1579011922725,-0.30204773,0.22766113,9.957321
1579011922730,-0.33078003,0.23963928,9.868744
1579011922735,-0.33317566,0.21809387,9.770584
1579011922740,-0.28050232,0.2204895,9.739456
1579011922744,-0.30444336,0.23005676,9.777771000000001
1579011922749,-0.2781067,0.21330261,9.885498
1579011922755,-0.31163025,0.24443054,9.928604
1579011922759,-0.31880188,0.21090698,9.911835
1579011922765,-0.29486084,0.22766113,9.7921295
1579011922771,-0.2996521,0.21090698,9.720305999999999
1579011922775,-0.306839,0.21809387,9.775375
1579011922780,-0.28050232,0.21090698,9.849594
1579011922786,-0.28767395,0.20132446,9.899872
1579011922791,-0.30204773,0.20372010000000002,9.830428999999999
1579011922795,-0.2996521,0.21569824,9.816071
1579011922801,-0.31163025,0.21330261,9.775375
1579011922806,-0.30923462,0.21330261,9.816071
1579011922811,-0.28767395,0.2539978,9.842407000000001
1579011922816,-0.32119749999999997,0.24920654,9.854385
1579011922821,-0.32359314,0.20372010000000002,9.880707000000001
1579011922826,-0.33078003,0.23005676,9.823257
1579011922830,-0.3283844,0.23245239999999998,9.799316000000001
1579011922835,-0.31640625,0.24681091,9.840012
1579011922840,-0.32598877,0.25639343,9.863953
1579011922846,-0.34513855,0.2204895,9.851989999999999
1579011922852,-0.34992979999999996,0.23005676,9.811278999999999
1579011922857,-0.30204773,0.21569824,9.768188
1579011922862,-0.28050232,0.23484802,9.784943
1579011922867,-0.29725647,0.23245239999999998,9.811278999999999
1579011922871,-0.2996521,0.21330261,9.811278999999999
1579011922877,-0.28529358,0.2252655,9.856766
1579011922881,-0.31640625,0.23724365,9.820862
1579011922887,-0.31163025,0.24681091,9.825652999999999
1579011922891,-0.29725647,0.23724365,9.844803
1579011922896,-0.2996521,0.23005676,9.859161
1579011922901,-0.2996521,0.2252655,9.863953
1579011922907,-0.31401062,0.22286987,9.859161
1579011922912,-0.32119749999999997,0.21330261,9.83522
1579011922917,-0.306839,0.21330261,9.861557000000001
1579011922923,-0.2996521,0.21809387,9.851989999999999
1579011922927,-0.30444336,0.23245239999999998,9.816071
1579011922933,-0.2781067,0.23005676,9.808883999999999
1579011922938,-0.32598877,0.23005676,9.820862
1579011922943,-0.31880188,0.23245239999999998,9.789734
1579011922948,-0.31163025,0.21809387,9.825652999999999
1579011922952,-0.32119749999999997,0.20611572,9.823257
1579011922957,-0.32598877,0.21090698,9.842407000000001
1579011922963,-0.30204773,0.21809387,9.832825
1579011922967,-0.306839,0.21569824,9.854385
1579011922973,-0.29006958,0.20611572,9.840012
1579011922978,-0.30923462,0.23724365,9.823257
1579011922983,-0.29486084,0.24203491,9.799316000000001
1579011922988,-0.29725647,0.22766113,9.856766
1579011922994,-0.2924652,0.20372010000000002,9.880707000000001
1579011922999,-0.306839,0.2204895,9.854385
1579011923004,-0.32598877,0.22766113,9.83522
1579011923009,-0.28767395,0.21090698,9.844803
1579011923014,-0.2924652,0.21090698,9.828049
1579011923019,-0.32119749999999997,0.20851135,9.828049
1579011923023,-0.31401062,0.2252655,9.828049
1579011923028,-0.30204773,0.21809387,9.844803
1579011923034,-0.31880188,0.23484802,9.842407000000001
1579011923039,-0.2924652,0.22286987,9.854385
1579011923044,-0.32119749999999997,0.23963928,9.830428999999999
1579011923049,-0.32359314,0.23963928,9.840012
1579011923054,-0.3283844,0.23245239999999998,9.83522
1579011923060,-0.34992979999999996,0.2252655,9.830428999999999
1579011923065,-0.30204773,0.22766113,9.823257
1579011923070,-0.30923462,0.23963928,9.794525
1579011923074,-0.29006958,0.22286987,9.842407000000001
1579011923080,-0.2924652,0.22286987,9.777771000000001
1579011923085,-0.28767395,0.19892883,9.808883999999999
1579011923089,-0.2996521,0.20372010000000002,9.861557000000001
1579011923094,-0.31880188,0.20372010000000002,9.816071
1579011923100,-0.2924652,0.23963928,9.811278999999999
1579011923104,-0.2996521,0.20611572,9.885498
1579011923110,-0.29486084,0.18457031,9.840012
1579011923115,-0.31401062,0.21809387,9.775375
1579011923120,-0.306839,0.18936157,9.830428999999999
1579011923124,-0.29006958,0.19415283,9.837616
1579011923130,-0.26612854,0.18696594,9.808883999999999
1579011923135,-0.28289795,0.18936157,9.849594
1579011923141,-0.31880188,0.18936157,9.837616
1579011923146,-0.30444336,0.19175720000000002,9.828049
1579011923151,-0.31640625,0.20132446,9.863953
1579011923156,-0.31401062,0.21090698,9.842407000000001
1579011923161,-0.28289795,0.18696594,9.823257
1579011923166,-0.306839,0.21090698,9.811278999999999
1579011923171,-0.32359314,0.26597595,9.813675
1579011923176,-0.31401062,0.2252655,9.811278999999999
1579011923180,-0.30444336,0.23245239999999998,9.7921295
1579011923186,-0.34753418,0.21809387,9.825652999999999
1579011923191,-0.34992979999999996,0.23963928,9.871139999999999
1579011923196,-0.32359314,0.22766113,9.863953
1579011923201,-0.2996521,0.2252655,9.832825
1579011923206,-0.2996521,0.22286987,9.840012
1579011923212,-0.30444336,0.20611572,9.837616
1579011923217,-0.31640625,0.20132446,9.849594
1579011923222,-0.29006958,0.21569824,9.83522
1579011923227,-0.28767395,0.21569824,9.828049
1579011923231,-0.2924652,0.21090698,9.837616
1579011923237,-0.29006958,0.19175720000000002,9.840012
1579011923241,-0.29486084,0.23245239999999998,9.794525
1579011923246,-0.29486084,0.21090698,9.832825
1579011923252,-0.28767395,0.21090698,9.859161
1579011923257,-0.29725647,0.2252655,9.861557000000001
1579011923262,-0.29006958,0.20851135,9.842407000000001
1579011923266,-0.2781067,0.20611572,9.816071
1579011923272,-0.30204773,0.22286987,9.799316000000001
1579011923277,-0.30444336,0.23484802,9.828049
1579011923283,-0.32598877,0.21569824,9.842407000000001
1579011923288,-0.30923462,0.24681091,9.816071
1579011923293,-0.30923462,0.24443054,9.816071
1579011923297,-0.31640625,0.23245239999999998,9.828049
1579011923303,-0.33078003,0.2252655,9.823257
1579011923308,-0.30444336,0.24203491,9.820862
1579011923313,-0.30923462,0.2252655,9.842407000000001
1579011923318,-0.2924652,0.19175720000000002,9.825652999999999
1579011923323,-0.29486084,0.21090698,9.816071
1579011923328,-0.306839,0.21330261,9.808883999999999
1579011923333,-0.30444336,0.21330261,9.832825
1579011923337,-0.30923462,0.22286987,9.849594
1579011923343,-0.31163025,0.22766113,9.832825
1579011923347,-0.28529358,0.23005676,9.844803
1579011923353,-0.28767395,0.20851135,9.83522
1579011923359,-0.29725647,0.21330261,9.813675
1579011923363,-0.29486084,0.19892883,9.820862
1579011923369,-0.33317566,0.2252655,9.844803
1579011923374,-0.29725647,0.22286987,9.854385
1579011923379,-0.29486084,0.19892883,9.830428999999999
1579011923384,-0.2924652,0.20132446,9.818466
1579011923389,-0.29725647,0.19892883,9.842407000000001
1579011923393,-0.31401062,0.21330261,9.840012
1579011923399,-0.2924652,0.22286987,9.830428999999999
1579011923404,-0.29486084,0.24681091,9.818466
1579011923409,-0.31163025,0.23724365,9.828049
1579011923414,-0.32598877,0.19175720000000002,9.816071
1579011923419,-0.31401062,0.19653320000000002,9.794525
1579011923424,-0.28529358,0.21809387,9.722702
1579011923430,-0.28050232,0.23245239999999998,9.586227000000001
1579011923435,-0.32359314,0.23963928,9.732269
1579011923440,-0.31880188,0.22286987,10.263794
1579011923444,-0.2781067,0.21809387,10.436172500000001
1579011923450,-0.30444336,0.22286987,9.93338
1579011923455,-0.30204773,0.19892883,9.454544
1579011923460,-0.34274292,0.21090698,9.514403999999999
1579011923464,-0.30444336,0.22766113,9.861557000000001
1579011923470,-0.28529358,0.21330261,9.830428999999999
1579011923475,-0.33317566,0.21809387,9.691574000000001
1579011923480,-0.32598877,0.18696594,9.8471985
1579011923485,-0.28767395,0.20132446,10.017180999999999
1579011923490,-0.2924652,0.23005676,9.895081
1579011923495,-0.306839,0.23963928,9.818466
1579011923501,-0.29486084,0.22286987,9.935775999999999
1579011923506,-0.2924652,0.26837158,9.837616
1579011923510,-0.33557129999999996,0.26597595,9.715515
1579011923515,-0.31163025,0.20851135,9.7921295
1579011923521,-0.31880188,0.20132446,9.890289
1579011923525,-0.31401062,0.19892883,9.873535
1579011923531,-0.31401062,0.1630249,9.825652999999999
1579011923536,-0.33078003,0.19175720000000002,9.816071
1579011923541,-0.29486084,0.20372010000000002,9.859161
1579011923546,-0.28767395,0.23963928,9.840012
1579011923550,-0.30204773,0.24443054,9.842407000000001
1579011923556,-0.26612854,0.2539978,9.875931
1579011923561,-0.2637329,0.25639343,9.8471985
1579011923566,-0.26852417,0.22766113,9.871139999999999
1579011923572,-0.2924652,0.20132446,9.823257
1579011923577,-0.28050232,0.19653320000000002,9.799316000000001
1579011923582,-0.30444336,0.19415283,9.828049
1579011923586,-0.33796692,0.18696594,9.844803
1579011923592,-0.31640625,0.20851135,9.851989999999999
1579011923597,-0.30444336,0.22286987,9.863953
1579011923601,-0.30204773,0.24681091,9.890289
1579011923607,-0.31401062,0.24920654,9.854385
1579011923611,-0.32359314,0.25639343,9.796921000000001
1579011923616,-0.32598877,0.25878906,9.806488
1579011923621,-0.34992979999999996,0.2204895,9.849594
1579011923627,-0.31401062,0.2204895,9.861557000000001
1579011923631,-0.30923462,0.19415283,9.856766
1579011923637,-0.32119749999999997,0.20372010000000002,9.851989999999999
1579011923642,-0.29486084,0.19892883,9.849594
1579011923647,-0.28529358,0.2204895,9.859161
1579011923652,-0.29486084,0.25639343,9.868744
1579011923658,-0.29486084,0.26597595,9.875931
1579011923662,-0.28767395,0.2252655,9.842407000000001
1579011923667,-0.2996521,0.21330261,9.828049
1579011923672,-0.33317566,0.20611572,9.818466
1579011923677,-0.2924652,0.20372010000000002,9.861557000000001
1579011923683,-0.2924652,0.21809387,9.808883999999999
1579011923688,-0.29725647,0.19892883,9.806488
1579011923692,-0.29725647,0.2204895,9.851989999999999
1579011923697,-0.28767395,0.22286987,9.849594
1579011923703,-0.29486084,0.2252655,9.871139999999999
1579011923707,-0.306839,0.24920654,9.856766
1579011923714,-0.28767395,0.23484802,9.820862
1579011923718,-0.28529358,0.23245239999999998,9.866348
1579011923724,-0.29486084,0.19892883,9.856766
1579011923729,-0.28289795,0.18696594,9.844803
1579011923733,-0.2709198,0.23005676,9.868744
1579011923738,-0.29486084,0.21330261,9.842407000000001
1579011923744,-0.2996521,0.19653320000000002,9.7921295
1579011923748,-0.2996521,0.2252655,9.825652999999999
1579011923754,-0.30444336,0.24443054,9.816071
1579011923758,-0.30923462,0.22766113,9.859161
1579011923763,-0.31640625,0.24203491,9.851989999999999
1579011923768,-0.30204773,0.21330261,9.830428999999999
1579011923774,-0.31401062,0.24681091,9.830428999999999
1579011923779,-0.31401062,0.23724365,9.856766
1579011923784,-0.29006958,0.2204895,9.837616
1579011923789,-0.31163025,0.21090698,9.813675
1579011923795,-0.32359314,0.21330261,9.842407000000001
1579011923800,-0.30204773,0.23005676,9.8471985
1579011923805,-0.306839,0.24203491,9.820862
1579011923810,-0.2996521,0.23724365,9.828049
1579011923814,-0.32598877,0.25639343,9.823257
1579011923820,-0.30444336,0.23963928,9.828049
1579011923825,-0.30444336,0.21569824,9.825652999999999
1579011923830,-0.32359314,0.22286987,9.840012
1579011923834,-0.30204773,0.21569824,9.806488
1579011923840,-0.30204773,0.19175720000000002,9.816071
1579011923844,-0.32598877,0.20611572,9.849594
1579011923850,-0.32598877,0.19415283,9.765792999999999
1579011923854,-0.30923462,0.19415283,9.832825
1579011923860,-0.28529358,0.19415283,9.859161
1579011923865,-0.29725647,0.21330261,9.871139999999999
1579011923871,-0.2996521,0.22286987,9.849594
1579011923876,-0.26852417,0.22286987,9.818466
1579011923881,-0.27571106,0.23005676,9.873535
1579011923886,-0.28529358,0.21569824,9.8471985
1579011923890,-0.31640625,0.21809387,9.832825
1579011923896,-0.32598877,0.22766113,9.828049
1579011923901,-0.29725647,0.2539978,9.840012
1579011923906,-0.29725647,0.24681091,9.866348
1579011923910,-0.31163025,0.24203491,9.849594
1579011923916,-0.33557129999999996,0.24443054,9.828049
1579011923921,-0.31640625,0.23245239999999998,9.851989999999999
1579011923926,-0.306839,0.23484802,9.856766
1579011923931,-0.32598877,0.24681091,9.875931
1579011923937,-0.30923462,0.23245239999999998,9.851989999999999
1579011923941,-0.30923462,0.23245239999999998,9.777771000000001
1579011923947,-0.31401062,0.21569824,9.832825
1579011923952,-0.2996521,0.21569824,9.840012
1579011923957,-0.28050232,0.22286987,9.83522
1579011923961,-0.29725647,0.24443054,9.808883999999999
1579011923967,-0.34753418,0.24443054,9.875931
1579011923971,-0.29725647,0.21809387,9.899872
1579011923977,-0.28289795,0.21569824,9.804092
1579011923981,-0.30444336,0.23963928,9.806488
1579011923987,-0.30204773,0.18217468,9.873535
1579011923991,-0.28767395,0.2204895,9.851989999999999
1579011923997,-0.31163025,0.23005676,9.799316000000001
1579011924002,-0.32119749999999997,0.19175720000000002,9.801712
1579011924008,-0.2924652,0.2252655,9.849594
1579011924012,-0.29486084,0.2252655,9.830428999999999
1579011924018,-0.2996521,0.2252655,9.83522
1579011924022,-0.31880188,0.24443054,9.849594
1579011924028,-0.28529358,0.25878906,9.851989999999999
1579011924033,-0.31640625,0.23005676,9.856766
1579011924038,-0.3283844,0.23245239999999998,9.859161
1579011924043,-0.2996521,0.21569824,9.856766
1579011924048,-0.30923462,0.24681091,9.832825
1579011924053,-0.31163025,0.23484802,9.811278999999999
1579011924058,-0.32119749999999997,0.20132446,9.806488
1579011924063,-0.31880188,0.21330261,9.830428999999999
1579011924067,-0.33317566,0.22766113,9.83522
1579011924073,-0.31163025,0.21090698,9.787338
1579011924078,-0.30923462,0.2252655,9.856766
1579011924084,-0.30444336,0.23724365,9.873535
1579011924089,-0.2996521,0.23005676,9.878326
1579011924094,-0.27571106,0.23484802,9.820862
1579011924098,-0.26612854,0.23245239999999998,9.825652999999999
1579011924104,-0.30444336,0.20851135,9.863953
1579011924108,-0.2924652,0.21809387,9.849594
1579011924113,-0.29486084,0.24203491,9.830428999999999
1579011924119,-0.30923462,0.22286987,9.8471985
1579011924124,-0.29486084,0.21090698,9.842407000000001
1579011924128,-0.28289795,0.22766113,9.816071
1579011924134,-0.31401062,0.22766113,9.801712
1579011924138,-0.30923462,0.22286987,9.830428999999999
1579011924144,-0.31163025,0.21809387,9.837616
1579011924150,-0.30923462,0.18457031,9.811278999999999
1579011924155,-0.30204773,0.18936157,9.825652999999999
1579011924160,-0.31880188,0.22286987,9.840012
1579011924164,-0.31163025,0.23963928,9.842407000000001
1579011924170,-0.28529358,0.2204895,9.873535
1579011924175,-0.28767395,0.23005676,9.878326
1579011924179,-0.30923462,0.19415283,9.842407000000001
1579011924185,-0.29006958,0.23724365,9.837616
1579011924190,-0.28767395,0.24920654,9.820862
1579011924195,-0.2924652,0.21330261,9.811278999999999
1579011924200,-0.31401062,0.20132446,9.837616
1579011924205,-0.31401062,0.20851135,9.856766
1579011924210,-0.30444336,0.21809387,9.818466
1579011924214,-0.32119749999999997,0.21090698,9.83522
1579011924220,-0.31880188,0.21330261,9.823257
1579011924225,-0.31163025,0.21809387,9.871139999999999
1579011924231,-0.28767395,0.25160217,9.842407000000001
1579011924235,-0.29486084,0.22286987,9.842407000000001
1579011924241,-0.30444336,0.2204895,9.856766
1579011924246,-0.306839,0.23245239999999998,9.854385
1579011924251,-0.28767395,0.2252655,9.863953
1579011924255,-0.29725647,0.19653320000000002,9.828049
1579011924261,-0.31401062,0.20851135,9.813675
1579011924266,-0.30444336,0.23724365,9.859161
1579011924271,-0.30204773,0.20851135,9.837616
1579011924275,-0.30444336,0.23005676,9.784943
1579011924281,-0.306839,0.2204895,9.866348
1579011924286,-0.31880188,0.21569824,9.83522
1579011924291,-0.306839,0.2204895,9.811278999999999
1579011924296,-0.31880188,0.21809387,9.880707000000001
1579011924302,-0.306839,0.21330261,9.823257
1579011924307,-0.29486084,0.23005676,9.825652999999999
1579011924312,-0.30204773,0.20132446,9.849594
1579011924316,-0.2924652,0.21330261,9.861557000000001
1579011924321,-0.2996521,0.2204895,9.820862
1579011924327,-0.2924652,0.2204895,9.806488
1579011924332,-0.30204773,0.23963928,9.878326
1579011924336,-0.2996521,0.22286987,9.880707000000001
1579011924342,-0.30204773,0.23724365,9.686783
1579011924347,-0.32359314,0.21090698,9.851989999999999
1579011924352,-0.32359314,0.23245239999999998,9.907043
1579011924357,-0.30204773,0.24443054,9.789734
1579011924362,-0.3283844,0.22766113,9.784943
1579011924367,-0.3283844,0.21569824,9.880707000000001
1579011924372,-0.29486084,0.21809387,9.875931
1579011924378,-0.30923462,0.20851135,9.830428999999999
1579011924383,-0.2924652,0.23005676,9.842407000000001
1579011924388,-0.27571106,0.23005676,9.854385
1579011924392,-0.26852417,0.23963928,9.818466
1579011924397,-0.28289795,0.20611572,9.825652999999999
1579011924403,-0.28289795,0.18217468,9.844803
1579011924407,-0.27571106,0.20132446,9.83522
1579011924413,-0.29006958,0.20132446,9.866348
1579011924418,-0.28050232,0.19653320000000002,9.823257
1579011924423,-0.2996521,0.19892883,9.801712
1579011924428,-0.30444336,0.2204895,9.873535
1579011924432,-0.2996521,0.23245239999999998,9.842407000000001
1579011924437,-0.31640625,0.23484802,9.830428999999999
1579011924444,-0.29486084,0.21809387,9.844803
1579011924449,-0.29486084,0.21330261,9.849594
1579011924454,-0.29725647,0.21569824,9.832825
1579011924459,-0.32119749999999997,0.23484802,9.816071
1579011924463,-0.30204773,0.24920654,9.844803
1579011924468,-0.31401062,0.21569824,9.842407000000001
1579011924473,-0.29486084,0.20372010000000002,9.816071
1579011924479,-0.2996521,0.23484802,9.789734
1579011924484,-0.29006958,0.2252655,9.873535
1579011924488,-0.32119749999999997,0.24920654,9.859161
1579011924493,-0.32119749999999997,0.2539978,9.849594
1579011924499,-0.29006958,0.22286987,9.866348
1579011924503,-0.31163025,0.24203491,9.851989999999999
1579011924509,-0.31640625,0.2204895,9.840012
1579011924515,-0.28767395,0.2204895,9.883102000000001
1579011924520,-0.29725647,0.21809387,9.828049
1579011924524,-0.29486084,0.18457031,9.818466
1579011924529,-0.26852417,0.21809387,9.842407000000001
1579011924534,-0.2781067,0.20851135,9.878326
1579011924540,-0.306839,0.20851135,9.856766
1579011924545,-0.28529358,0.20132446,9.820862
1579011924549,-0.2589569,0.21330261,9.806488
1579011924555,-0.27571106,0.22766113,9.830428999999999
1579011924559,-0.31880188,0.22766113,9.892685
1579011924565,-0.32359314,0.23005676,9.885498
1579011924570,-0.33557129999999996,0.25160217,9.83522
1579011924575,-0.33557129999999996,0.22286987,9.854385
1579011924579,-0.33557129999999996,0.21090698,9.828049
1579011924584,-0.3283844,0.21569824,9.840012
1579011924591,-0.34992979999999996,0.2252655,9.837616
1579011924596,-0.33796692,0.2252655,9.854385
1579011924600,-0.31401062,0.21569824,9.83522
1579011924606,-0.31401062,0.22286987,9.820862
1579011924611,-0.29486084,0.23484802,9.842407000000001
1579011924616,-0.30923462,0.2204895,9.871139999999999
1579011924621,-0.29486084,0.23005676,9.8471985
1579011924626,-0.2924652,0.21809387,9.825652999999999
1579011924631,-0.2709198,0.23245239999999998,9.895081
1579011924636,-0.26133728,0.21569824,9.8471985
1579011924641,-0.2709198,0.19415283,9.863953
1579011924646,-0.30204773,0.20372010000000002,9.871139999999999
1579011924651,-0.2709198,0.19653320000000002,9.861557000000001
1579011924655,-0.2924652,0.19653320000000002,9.871139999999999
1579011924662,-0.28767395,0.20611572,9.849594
1579011924666,-0.2996521,0.2204895,9.828049
1579011924671,-0.2781067,0.20851135,9.832825
1579011924677,-0.29725647,0.21330261,9.851989999999999
1579011924681,-0.29725647,0.2204895,9.820862
1579011924686,-0.29006958,0.20372010000000002,9.816071
1579011924692,-0.31880188,0.25639343,9.8471985
1579011924697,-0.31640625,0.25639343,9.854385
1579011924702,-0.31163025,0.22766113,9.818466
1579011924706,-0.33078003,0.23005676,9.859161
1579011924712,-0.32359314,0.22766113,9.840012
1579011924717,-0.29725647,0.2204895,9.820862
1579011924721,-0.29725647,0.23484802,9.851989999999999
1579011924727,-0.32119749999999997,0.25878906,9.856766
1579011924733,-0.31401062,0.23245239999999998,9.840012
1579011924738,-0.306839,0.22766113,9.828049
1579011924743,-0.32359314,0.2204895,9.830428999999999
1579011924748,-0.306839,0.18217468,9.856766
1579011924752,-0.31401062,0.20372010000000002,9.840012
1579011924758,-0.27331543,0.21330261,9.854385
1579011924763,-0.26852417,0.20132446,9.811278999999999
1579011924767,-0.28050232,0.20372010000000002,9.83522
1579011924773,-0.29725647,0.20851135,9.866348
1579011924778,-0.29006958,0.20132446,9.837616
1579011924783,-0.29725647,0.21090698,9.784943
1579011924788,-0.31401062,0.21809387,9.861557000000001
1579011924793,-0.30923462,0.21330261,9.854385
1579011924797,-0.33796692,0.21569824,9.830428999999999
1579011924802,-0.306839,0.21090698,9.861557000000001
1579011924808,-0.31163025,0.2204895,9.859161
1579011924814,-0.306839,0.23245239999999998,9.8471985
1579011924819,-0.29486084,0.23484802,9.832825
1579011924824,-0.31163025,0.2252655,9.816071
1579011924829,-0.29725647,0.23005676,9.842407000000001
1579011924833,-0.29486084,0.23484802,9.828049
1579011924839,-0.30923462,0.23963928,9.854385
1579011924843,-0.28289795,0.20611572,9.859161
1579011924849,-0.2924652,0.21809387,9.8471985
1579011924854,-0.28767395,0.21569824,9.856766
1579011924859,-0.28529358,0.18696594,9.820862
1579011924864,-0.2924652,0.21569824,9.828049
1579011924869,-0.27571106,0.19653320000000002,9.842407000000001
1579011924874,-0.28050232,0.22286987,9.837616
1579011924880,-0.30204773,0.2204895,9.861557000000001
1579011924884,-0.2709198,0.21330261,9.859161
1579011924890,-0.2924652,0.20372010000000002,9.825652999999999
1579011924894,-0.2924652,0.21809387,9.830428999999999
1579011924900,-0.31880188,0.24920654,9.851989999999999
1579011924904,-0.32359314,0.23484802,9.8471985
1579011924909,-0.28289795,0.19892883,9.854385
1579011924915,-0.29486084,0.22286987,9.859161
1579011924920,-0.31880188,0.2252655,9.851989999999999
1579011924925,-0.2996521,0.22286987,9.818466
1579011924930,-0.29725647,0.23005676,9.818466
1579011924934,-0.30204773,0.22286987,9.840012
1579011924939,-0.2996521,0.23963928,9.83522
1579011924945,-0.2924652,0.21809387,9.823257
1579011924951,-0.2924652,0.21330261,9.83522
1579011924955,-0.28767395,0.23005676,9.816071
1579011924961,-0.32119749999999997,0.21090698,9.823257
1579011924966,-0.31880188,0.21569824,9.854385
1579011924971,-0.32598877,0.22286987,9.8471985
1579011924975,-0.306839,0.23484802,9.837616
1579011924981,-0.26852417,0.21809387,9.828049
1579011924986,-0.2996521,0.19653320000000002,9.823257
1579011924991,-0.30204773,0.22286987,9.842407000000001
1579011924996,-0.27571106,0.22286987,9.830428999999999
1579011925001,-0.29006958,0.21569824,9.8471985
1579011925006,-0.306839,0.21569824,9.825652999999999
1579011925011,-0.2996521,0.21330261,9.820862
1579011925016,-0.3283844,0.21809387,9.83522
1579011925020,-0.31401062,0.23005676,9.83522
1579011925027,-0.33078003,0.19415283,9.863953
1579011925032,-0.28289795,0.23245239999999998,9.840012
1579011925037,-0.32119749999999997,0.23484802,9.799316000000001
1579011925042,-0.31163025,0.2204895,9.823257
1579011925047,-0.31640625,0.22286987,9.859161
1579011925051,-0.29486084,0.22766113,9.842407000000001
1579011925056,-0.30444336,0.21809387,9.820862
1579011925061,-0.2996521,0.2204895,9.832825
1579011925067,-0.2996521,0.23005676,9.8471985
1579011925072,-0.29486084,0.24443054,9.863953
1579011925077,-0.30204773,0.19653320000000002,9.828049
1579011925082,-0.28050232,0.19175720000000002,9.842407000000001
1579011925087,-0.2781067,0.2204895,9.813675
1579011925091,-0.306839,0.21809387,9.854385
1579011925098,-0.306839,0.20851135,9.840012
1579011925102,-0.31880188,0.23005676,9.851989999999999
1579011925107,-0.2996521,0.23245239999999998,9.854385
1579011925112,-0.29725647,0.20611572,9.828049
1579011925117,-0.32119749999999997,0.23005676,9.825652999999999
1579011925122,-0.30444336,0.2204895,9.832825
1579011925127,-0.2924652,0.23245239999999998,9.859161
1579011925133,-0.306839,0.20611572,9.851989999999999
1579011925137,-0.2996521,0.19175720000000002,9.825652999999999
1579011925143,-0.32598877,0.24443054,9.861557000000001
1579011925148,-0.32359314,0.21809387,9.854385
1579011925152,-0.31640625,0.20851135,9.842407000000001
1579011925158,-0.31640625,0.21809387,9.8471985
1579011925162,-0.30923462,0.2252655,9.828049
1579011925169,-0.30444336,0.24203491,9.859161
1579011925174,-0.2996521,0.23724365,9.837616
1579011925179,-0.31640625,0.23245239999999998,9.837616
1579011925184,-0.32359314,0.20851135,9.830428999999999
1579011925188,-0.306839,0.19415283,9.842407000000001
1579011925194,-0.31163025,0.21330261,9.806488
1579011925199,-0.29725647,0.21330261,9.8471985
1579011925204,-0.30204773,0.2204895,9.825652999999999
1579011925209,-0.29725647,0.2252655,9.825652999999999
1579011925213,-0.30204773,0.22766113,9.818466
1579011925218,-0.306839,0.22286987,9.837616
1579011925224,-0.31163025,0.21330261,9.856766
1579011925228,-0.30204773,0.23724365,9.844803
1579011925234,-0.31640625,0.25160217,9.878326
1579011925239,-0.30204773,0.21569824,9.851989999999999
1579011925244,-0.2924652,0.21809387,9.840012
1579011925250,-0.2924652,0.22286987,9.866348
1579011925255,-0.32359314,0.21569824,9.823257
1579011925260,-0.32598877,0.21809387,9.837616
1579011925264,-0.27331543,0.23963928,9.816071
1579011925269,-0.29725647,0.25160217,9.825652999999999
1579011925274,-0.34753418,0.24681091,9.851989999999999
1579011925280,-0.31401062,0.19175720000000002,9.851989999999999
1579011925284,-0.2924652,0.20611572,9.789734
1579011925290,-0.30204773,0.21330261,9.840012
1579011925295,-0.29006958,0.21809387,9.8471985
1579011925300,-0.31880188,0.23963928,9.830428999999999
1579011925305,-0.31163025,0.2204895,9.837616
1579011925309,-0.28767395,0.23005676,9.828049
1579011925316,-0.29486084,0.2252655,9.811278999999999
1579011925320,-0.3283844,0.21569824,9.859161
1579011925325,-0.32598877,0.21330261,9.863953
1579011925331,-0.28050232,0.19653320000000002,9.83522
1579011925335,-0.30923462,0.21809387,9.851989999999999
1579011925341,-0.2996521,0.21809387,9.8471985
1579011925346,-0.30923462,0.22766113,9.830428999999999
1579011925350,-0.30204773,0.21569824,9.813675
1579011925355,-0.2924652,0.2252655,9.842407000000001
1579011925361,-0.3283844,0.23005676,9.83522
1579011925366,-0.34274292,0.20372010000000002,9.808883999999999
1579011925371,-0.31880188,0.21569824,9.83522
1579011925376,-0.31401062,0.22766113,9.873535
1579011925381,-0.30923462,0.24203491,9.804092
1579011925387,-0.30444336,0.24203491,9.828049
1579011925391,-0.30923462,0.21809387,9.8471985
1579011925396,-0.32598877,0.2252655,9.83522
1579011925402,-0.31880188,0.2252655,9.873535
1579011925407,-0.28767395,0.20851135,9.820862
1579011925412,-0.32359314,0.21809387,9.811278999999999
1579011925416,-0.306839,0.22766113,9.863953
1579011925422,-0.29006958,0.19892883,9.83522
1579011925427,-0.306839,0.21330261,9.840012
1579011925432,-0.31880188,0.2252655,9.899872
1579011925436,-0.28050232,0.21090698,9.840012
1579011925441,-0.29006958,0.20611572,9.832825
1579011925447,-0.29006958,0.2204895,9.854385
1579011925452,-0.2996521,0.2204895,9.840012
1579011925457,-0.31401062,0.21090698,9.830428999999999
1579011925462,-0.28289795,0.21090698,9.844803
1579011925468,-0.29725647,0.21090698,9.828049
1579011925472,-0.31163025,0.21569824,9.823257
1579011925477,-0.32119749999999997,0.21809387,9.871139999999999
1579011925482,-0.32598877,0.2252655,9.859161
1579011925488,-0.32598877,0.23484802,9.873535
1579011925492,-0.31163025,0.23484802,9.83522
1579011925498,-0.2996521,0.19415283,9.799316000000001
1579011925502,-0.30204773,0.2204895,9.844803
1579011925507,-0.28767395,0.23484802,9.863953
1579011925512,-0.2924652,0.22286987,9.8471985
1579011925517,-0.31640625,0.23245239999999998,9.842407000000001
1579011925523,-0.33557129999999996,0.23724365,9.830428999999999
1579011925527,-0.2996521,0.21330261,9.825652999999999
1579011925534,-0.2924652,0.23005676,9.837616
1579011925538,-0.28767395,0.2252655,9.866348
1579011925544,-0.31401062,0.20611572,9.830428999999999
1579011925549,-0.34274292,0.21090698,9.811278999999999
1579011925554,-0.3283844,0.2539978,9.825652999999999
1579011925558,-0.30204773,0.21569824,9.8471985
1579011925564,-0.2996521,0.19415283,9.840012
1579011925568,-0.31640625,0.23724365,9.808883999999999
1579011925574,-0.31880188,0.21090698,9.840012
1579011925578,-0.30204773,0.23005676,9.844803
1579011925584,-0.29006958,0.2539978,9.851989999999999
1579011925588,-0.2996521,0.21330261,9.859161
1579011925593,-0.26852417,0.21090698,9.849594
1579011925599,-0.2996521,0.2204895,9.861557000000001
1579011925604,-0.31401062,0.25160217,9.823257
1579011925609,-0.31163025,0.2204895,9.840012
1579011925615,-0.30923462,0.20132446,9.832825
1579011925620,-0.29486084,0.19653320000000002,9.842407000000001
1579011925625,-0.30204773,0.21330261,9.861557000000001
1579011925630,-0.306839,0.2252655,9.8471985
1579011925635,-0.30444336,0.26118470000000005,9.873535
1579011925640,-0.31880188,0.2252655,9.842407000000001
1579011925645,-0.31401062,0.22286987,9.859161
1579011925650,-0.29006958,0.25639343,9.8471985
1579011925654,-0.32598877,0.21090698,9.8471985
1579011925660,-0.32359314,0.23484802,9.825652999999999
1579011925665,-0.2996521,0.22286987,9.83522
1579011925669,-0.306839,0.24920654,9.825652999999999
1579011925675,-0.28529358,0.24203491,9.842407000000001
1579011925680,-0.2996521,0.21569824,9.823257
1579011925685,-0.28529358,0.21569824,9.808883999999999
1579011925690,-0.32359314,0.2204895,9.854385
1579011925695,-0.30204773,0.21330261,9.849594
1579011925700,-0.30923462,0.22766113,9.818466
1579011925706,-0.31163025,0.21569824,9.851989999999999
1579011925710,-0.31163025,0.22766113,9.840012
1579011925716,-0.30923462,0.24920654,9.851989999999999
1579011925721,-0.28767395,0.25878906,9.863953
1579011925726,-0.28529358,0.20611572,9.837616
1579011925731,-0.2996521,0.24920654,9.830428999999999
1579011925736,-0.29725647,0.22286987,9.849594
1579011925741,-0.306839,0.21330261,9.878326
1579011925746,-0.31401062,0.2252655,9.849594
1579011925752,-0.31880188,0.20611572,9.813675
1579011925756,-0.30204773,0.22766113,9.837616
1579011925761,-0.306839,0.23245239999999998,9.7921295
1579011925767,-0.306839,0.18696594,9.818466
1579011925772,-0.306839,0.20132446,9.861557000000001
1579011925777,-0.29006958,0.2204895,9.849594
1579011925782,-0.3283844,0.21330261,9.806488
1579011925786,-0.31640625,0.19175720000000002,9.8471985
1579011925791,-0.30204773,0.22766113,9.866348
1579011925797,-0.29006958,0.25639343,9.8471985
1579011925802,-0.28529358,0.21569824,9.856766
1579011925806,-0.306839,0.2252655,9.849594
1579011925811,-0.31163025,0.2539978,9.83522
1579011925817,-0.32359314,0.18936157,9.784943
1579011925823,-0.306839,0.22766113,9.823257
1579011925828,-0.28289795,0.22286987,9.825652999999999
1579011925832,-0.28529358,0.22286987,9.844803
1579011925838,-0.31401062,0.24443054,9.832825
1579011925842,-0.29486084,0.24203491,9.818466
1579011925847,-0.2924652,0.21330261,9.837616
1579011925852,-0.31640625,0.20372010000000002,9.856766
1579011925858,-0.30204773,0.22766113,9.83522
1579011925863,-0.30444336,0.21569824,9.868744
1579011925868,-0.28767395,0.20132446,9.866348
1579011925872,-0.29486084,0.24203491,9.823257
1579011925877,-0.30204773,0.21330261,9.825652999999999
1579011925882,-0.28767395,0.21330261,9.868744
1579011925888,-0.2996521,0.22286987,9.830428999999999
1579011925893,-0.30444336,0.23245239999999998,9.878326
1579011925899,-0.30444336,0.24203491,9.828049
1579011925903,-0.30923462,0.23245239999999998,9.820862
1579011925909,-0.31640625,0.25878906,9.851989999999999
1579011925914,-0.27571106,0.23484802,9.837616
1579011925918,-0.29725647,0.24203491,9.840012
1579011925924,-0.31640625,0.23484802,9.828049
1579011925929,-0.32119749999999997,0.23963928,9.842407000000001
1579011925934,-0.306839,0.19892883,9.844803
1579011925939,-0.28767395,0.2252655,9.878326
1579011925944,-0.2924652,0.23245239999999998,9.844803
1579011925948,-0.28289795,0.24443054,9.830428999999999
1579011925953,-0.306839,0.23005676,9.859161
1579011925958,-0.30923462,0.20611572,9.861557000000001
1579011925963,-0.2781067,0.23245239999999998,9.828049
1579011925969,-0.28289795,0.23245239999999998,9.83522
1579011925974,-0.30204773,0.22766113,9.871139999999999
1579011925979,-0.28529358,0.23484802,9.842407000000001
1579011925985,-0.27571106,0.25160217,9.842407000000001
1579011925990,-0.2996521,0.23963928,9.813675
1579011925994,-0.29725647,0.23005676,9.851989999999999
1579011926000,-0.31401062,0.21090698,9.849594
1579011926005,-0.32359314,0.21809387,9.83522
1579011926009,-0.306839,0.23724365,9.825652999999999
1579011926015,-0.28529358,0.2204895,9.816071
1579011926020,-0.30444336,0.18936157,9.863953
1579011926025,-0.32359314,0.21809387,9.851989999999999
1579011926029,-0.31163025,0.2204895,9.8471985
1579011926035,-0.30923462,0.24681091,9.856766
1579011926041,-0.30444336,0.23484802,9.849594
1579011926045,-0.30923462,0.22766113,9.866348
1579011926050,-0.30204773,0.21090698,9.840012
1579011926056,-0.31640625,0.2252655,9.823257
1579011926061,-0.29486084,0.23005676,9.83522
1579011926065,-0.2996521,0.22766113,9.823257
1579011926071,-0.2996521,0.23005676,9.842407000000001
1579011926075,-0.30444336,0.23484802,9.873535
1579011926081,-0.30444336,0.19175720000000002,9.813675
1579011926086,-0.31640625,0.21569824,9.823257
1579011926091,-0.32119749999999997,0.23245239999999998,9.871139999999999
1579011926095,-0.30444336,0.25160217,9.825652999999999
1579011926101,-0.28289795,0.2204895,9.801712
1579011926105,-0.31401062,0.23963928,9.875931
1579011926111,-0.30923462,0.2252655,9.875931
1579011926117,-0.31163025,0.22766113,9.854385
1579011926122,-0.27571106,0.23245239999999998,9.813675
1579011926127,-0.27331543,0.21809387,9.789734
1579011926132,-0.33317566,0.23245239999999998,9.832825
1579011926137,-0.2996521,0.23963928,9.842407000000001
1579011926142,-0.29486084,0.22766113,9.880707000000001
1579011926146,-0.30444336,0.2252655,9.880707000000001
1579011926152,-0.28289795,0.23005676,9.873535
1579011926157,-0.31880188,0.24681091,9.818466
1579011926161,-0.29725647,0.22286987,9.806488
1579011926167,-0.2781067,0.23963928,9.856766
1579011926171,-0.2924652,0.23005676,9.849594
1579011926176,-0.32119749999999997,0.24203491,9.804092
1579011926182,-0.30923462,0.24681091,9.863953
1579011926188,-0.31163025,0.23005676,9.871139999999999
1579011926193,-0.30923462,0.22766113,9.832825
1579011926198,-0.29006958,0.21809387,9.840012
1579011926203,-0.30204773,0.23963928,9.849594
1579011926207,-0.30923462,0.19892883,9.811278999999999
1579011926213,-0.28529358,0.20132446,9.820862
1579011926218,-0.31401062,0.23005676,9.856766
1579011926223,-0.2996521,0.22766113,9.849594
1579011926228,-0.30444336,0.20372010000000002,9.837616
1579011926233,-0.30204773,0.19653320000000002,9.856766
1579011926237,-0.31640625,0.20851135,9.806488
1579011926242,-0.30923462,0.20611572,9.832825
1579011926248,-0.30204773,0.21090698,9.856766
1579011926253,-0.27571106,0.20132446,9.854385
1579011926259,-0.30923462,0.23005676,9.820862
1579011926263,-0.32119749999999997,0.23724365,9.842407000000001
1579011926269,-0.306839,0.23245239999999998,9.808883999999999
1579011926274,-0.2924652,0.21569824,9.811278999999999
1579011926279,-0.32359314,0.2204895,9.856766
1579011926284,-0.29725647,0.23245239999999998,9.859161
1579011926288,-0.32359314,0.21809387,9.823257
1579011926294,-0.32119749999999997,0.20372010000000002,9.861557000000001
1579011926299,-0.30444336,0.23005676,9.842407000000001
1579011926304,-0.31640625,0.23484802,9.820862
1579011926309,-0.3283844,0.21569824,9.880707000000001
1579011926314,-0.3283844,0.2252655,9.8471985
1579011926319,-0.30444336,0.22286987,9.830428999999999
1579011926324,-0.31163025,0.23724365,9.813675
1579011926329,-0.306839,0.20372010000000002,9.813675
1579011926335,-0.31163025,0.20611572,9.825652999999999
1579011926339,-0.2924652,0.21809387,9.83522
1579011926345,-0.30204773,0.22286987,9.844803
1579011926349,-0.26852417,0.23245239999999998,9.844803
1579011926354,-0.28767395,0.23963928,9.8471985
1579011926360,-0.29725647,0.23005676,9.859161
1579011926364,-0.28767395,0.21090698,9.842407000000001
1579011926370,-0.30923462,0.21330261,9.866348
1579011926375,-0.31640625,0.2252655,9.880707000000001
1579011926379,-0.28767395,0.20611572,9.820862
1579011926385,-0.28529358,0.21809387,9.842407000000001
1579011926389,-0.2781067,0.23005676,9.851989999999999
1579011926395,-0.2924652,0.21330261,9.8471985
1579011926400,-0.31640625,0.20611572,9.825652999999999
1579011926406,-0.29006958,0.24443054,9.813675
1579011926411,-0.29006958,0.2539978,9.837616
1579011926416,-0.31640625,0.22766113,9.842407000000001
1579011926421,-0.31640625,0.2539978,9.818466
1579011926426,-0.32359314,0.22766113,9.849594
1579011926431,-0.306839,0.23005676,9.844803
1579011926436,-0.306839,0.2204895,9.849594
1579011926440,-0.31880188,0.20611572,9.861557000000001
1579011926446,-0.33557129999999996,0.23005676,9.811278999999999
1579011926451,-0.31401062,0.24203491,9.832825
1579011926455,-0.31163025,0.23484802,9.837616
1579011926461,-0.32119749999999997,0.24203491,9.849594
1579011926466,-0.31163025,0.2204895,9.871139999999999
1579011926471,-0.3283844,0.22286987,9.863953
1579011926476,-0.29006958,0.23724365,9.830428999999999
1579011926482,-0.2996521,0.22286987,9.830428999999999
1579011926487,-0.28767395,0.21809387,9.873535
1579011926491,-0.27571106,0.21330261,9.871139999999999
1579011926497,-0.30444336,0.24203491,9.830428999999999
1579011926501,-0.29725647,0.20132446,9.863953
1579011926506,-0.32119749999999997,0.19653320000000002,9.849594
1579011926512,-0.31163025,0.25878906,9.823257
1579011926517,-0.2996521,0.23005676,9.83522
1579011926521,-0.2781067,0.18696594,9.875931
1579011926527,-0.2924652,0.22766113,9.722702
1579011926531,-0.29725647,0.23724365,9.866348
1579011926536,-0.28767395,0.20611572,9.863953
1579011926542,-0.30444336,0.2204895,9.849594
1579011926547,-0.30923462,0.21809387,9.813675
1579011926553,-0.306839,0.25160217,9.849594
1579011926558,-0.28767395,0.23484802,9.849594
1579011926562,-0.30444336,0.20851135,9.851989999999999
1579011926567,-0.3283844,0.20851135,9.806488
1579011926573,-0.306839,0.21569824,9.820862
1579011926578,-0.29486084,0.24443054,9.851989999999999
1579011926583,-0.306839,0.21569824,9.801712
1579011926587,-0.32119749999999997,0.20851135,9.825652999999999
1579011926592,-0.30444336,0.2252655,9.883102000000001
1579011926597,-0.30204773,0.24203491,9.806488
1579011926602,-0.31163025,0.24681091,9.787338
1579011926608,-0.29486084,0.2204895,9.871139999999999
1579011926612,-0.31880188,0.21809387,9.837616
1579011926618,-0.31880188,0.22766113,9.856766
1579011926623,-0.3283844,0.19892883,9.863953
1579011926628,-0.2924652,0.21809387,9.830428999999999
1579011926634,-0.29486084,0.23005676,9.863953
1579011926639,-0.29006958,0.2204895,9.840012
1579011926644,-0.31640625,0.21090698,9.832825
1579011926649,-0.30444336,0.21330261,9.842407000000001
1579011926654,-0.2781067,0.20132446,9.875931
1579011926659,-0.31163025,0.21569824,9.856766
1579011926664,-0.27571106,0.24681091,9.854385
1579011926669,-0.2996521,0.25160217,9.873535
1579011926673,-0.32119749999999997,0.23005676,9.818466
1579011926678,-0.29486084,0.20611572,9.830428999999999
1579011926684,-0.29486084,0.23245239999999998,9.808883999999999
1579011926688,-0.306839,0.21090698,9.816071
1579011926694,-0.30923462,0.21569824,9.851989999999999
1579011926700,-0.31640625,0.2204895,9.828049
1579011926704,-0.29006958,0.23724365,9.796921000000001
1579011926710,-0.30923462,0.23245239999999998,9.851989999999999
1579011926715,-0.31880188,0.20851135,9.854385
1579011926720,-0.31640625,0.21090698,9.832825
1579011926725,-0.30444336,0.23484802,9.849594
1579011926729,-0.31401062,0.24681091,9.840012
1579011926735,-0.306839,0.21330261,9.849594
1579011926740,-0.31401062,0.22766113,9.868744
1579011926745,-0.31163025,0.2539978,9.830428999999999
1579011926749,-0.30204773,0.2204895,9.854385
1579011926755,-0.2996521,0.22766113,9.837616
1579011926759,-0.28529358,0.20851135,9.811278999999999
1579011926764,-0.28050232,0.22766113,9.818466
1579011926770,-0.29725647,0.22766113,9.789734
1579011926775,-0.31640625,0.22286987,9.844803
1579011926780,-0.30923462,0.24681091,9.871139999999999
1579011926786,-0.27571106,0.21090698,9.866348
1579011926791,-0.29725647,0.23484802,9.851989999999999
1579011926796,-0.29725647,0.23245239999999998,9.8471985
1579011926800,-0.31640625,0.22766113,9.844803
1579011926806,-0.31880188,0.20851135,9.813675
1579011926810,-0.2924652,0.2252655,9.828049
1579011926816,-0.30923462,0.24681091,9.840012
1579011926820,-0.29486084,0.24681091,9.854385
1579011926826,-0.28767395,0.23005676,9.856766
1579011926831,-0.28289795,0.22286987,9.842407000000001
1579011926836,-0.28767395,0.21330261,9.863953
1579011926842,-0.29486084,0.23005676,9.823257
1579011926847,-0.2996521,0.24443054,9.840012
1579011926852,-0.32359314,0.2252655,9.851989999999999
1579011926856,-0.2924652,0.23963928,9.856766
1579011926861,-0.30444336,0.23963928,9.8471985
1579011926867,-0.29725647,0.2204895,9.818466
1579011926872,-0.2996521,0.23005676,9.837616
1579011926876,-0.31401062,0.24443054,9.794525
1579011926882,-0.32359314,0.2252655,9.832825
1579011926887,-0.30444336,0.21569824,9.851989999999999
1579011926891,-0.31640625,0.24443054,9.825652999999999
1579011926896,-0.2924652,0.24443054,9.840012
1579011926902,-0.30444336,0.23245239999999998,9.837616
1579011926907,-0.29006958,0.2204895,9.840012
1579011926913,-0.2996521,0.21809387,9.823257
1579011926917,-0.306839,0.24920654,9.820862
1579011926923,-0.2996521,0.22766113,9.842407000000001
1579011926928,-0.31640625,0.2252655,9.856766
1579011926933,-0.306839,0.21090698,9.830428999999999
1579011926938,-0.31880188,0.23005676,9.825652999999999
1579011926943,-0.32598877,0.23005676,9.854385
1579011926947,-0.30923462,0.2252655,9.849594
1579011926953,-0.2996521,0.22286987,9.844803
1579011926957,-0.2996521,0.22766113,9.851989999999999
1579011926963,-0.29006958,0.23005676,9.818466
1579011926967,-0.27571106,0.22286987,9.830428999999999
1579011926973,-0.27571106,0.23245239999999998,9.856766
1579011926978,-0.30204773,0.20851135,9.832825
1579011926983,-0.33078003,0.21569824,9.875931
1579011926988,-0.30444336,0.23005676,9.856766
1579011926993,-0.2924652,0.22766113,9.828049
1579011926999,-0.29486084,0.24203491,9.840012
1579011927003,-0.2996521,0.23005676,9.849594
1579011927009,-0.30204773,0.21569824,9.849594
1579011927014,-0.28289795,0.21569824,9.844803
1579011927019,-0.31401062,0.24681091,9.816071
1579011927024,-0.28050232,0.2204895,9.842407000000001
1579011927028,-0.306839,0.19175720000000002,9.844803
1579011927034,-0.28289795,0.23963928,9.832825
1579011927038,-0.30204773,0.2252655,9.844803
1579011927043,-0.30923462,0.2252655,9.859161
1579011927049,-0.306839,0.23245239999999998,9.840012
1579011927054,-0.28050232,0.22286987,9.866348
1579011927060,-0.30204773,0.21330261,9.875931
1579011927064,-0.29486084,0.24681091,9.875931
1579011927069,-0.30923462,0.23005676,9.863953
1579011927075,-0.30204773,0.23245239999999998,9.856766
1579011927080,-0.28767395,0.23484802,9.8471985
1579011927084,-0.27331543,0.2204895,9.806488
1579011927090,-0.31401062,0.2204895,9.842407000000001
1579011927094,-0.30444336,0.23005676,9.866348
1579011927100,-0.2924652,0.20851135,9.832825
1579011927104,-0.31163025,0.23724365,9.818466
1579011927109,-0.29725647,0.23245239999999998,9.854385
1579011927115,-0.27331543,0.25878906,9.8471985
1579011927120,-0.27571106,0.23724365,9.828049
1579011927125,-0.30444336,0.24681091,9.830428999999999
1579011927131,-0.31880188,0.2539978,9.83522
1579011927135,-0.32598877,0.23484802,9.863953
1579011927141,-0.2924652,0.21809387,9.83522
1579011927146,-0.2924652,0.23005676,9.849594
1579011927151,-0.306839,0.23005676,9.828049
1579011927156,-0.28767395,0.24681091,9.851989999999999
1579011927161,-0.2924652,0.22766113,9.840012
1579011927166,-0.30923462,0.21090698,9.825652999999999
1579011927171,-0.33078003,0.22766113,9.871139999999999
1579011927176,-0.31401062,0.20851135,9.873535
1579011927180,-0.31880188,0.23245239999999998,9.844803
1579011927185,-0.30444336,0.23724365,9.871139999999999
1579011927191,-0.2924652,0.21569824,9.851989999999999
1579011927196,-0.2996521,0.2252655,9.8471985
1579011927201,-0.30444336,0.21569824,9.873535
1579011927206,-0.30923462,0.23484802,9.844803
1579011927212,-0.2924652,0.2204895,9.804092
1579011927217,-0.31880188,0.22286987,9.830428999999999
1579011927221,-0.31163025,0.25878906,9.818466
1579011927227,-0.30444336,0.24443054,9.799316000000001
1579011927231,-0.30923462,0.22766113,9.83522
1579011927236,-0.28050232,0.25878906,9.8471985
1579011927241,-0.29006958,0.24203491,9.825652999999999
1579011927247,-0.27571106,0.22766113,9.851989999999999
1579011927252,-0.31163025,0.24443054,9.820862
1579011927257,-0.28289795,0.21809387,9.77298
1579011927262,-0.2996521,0.23005676,9.825652999999999
1579011927266,-0.32359314,0.23963928,9.866348
1579011927272,-0.31640625,0.23963928,9.866348
1579011927277,-0.31640625,0.21809387,9.813675
1579011927283,-0.31880188,0.21090698,9.825652999999999
1579011927288,-0.31880188,0.18457031,9.832825
1579011927292,-0.28289795,0.2252655,9.875931
1579011927297,-0.30444336,0.23724365,9.830428999999999
1579011927303,-0.2924652,0.24920654,9.813675
1579011927308,-0.2996521,0.21809387,9.832825
1579011927313,-0.29006958,0.21330261,9.830428999999999
1579011927318,-0.31401062,0.23005676,9.830428999999999
1579011927322,-0.31880188,0.22766113,9.830428999999999
1579011927328,-0.3283844,0.24443054,9.849594
1579011927333,-0.2924652,0.21569824,9.854385
1579011927338,-0.28289795,0.22286987,9.859161
1579011927342,-0.31163025,0.23484802,9.863953
1579011927349,-0.30204773,0.2252655,9.825652999999999
1579011927354,-0.31401062,0.2204895,9.806488
1579011927358,-0.306839,0.2252655,9.823257
1579011927364,-0.28529358,0.22286987,9.863953
1579011927368,-0.2924652,0.23005676,9.842407000000001
1579011927374,-0.30204773,0.23005676,9.859161
1579011927378,-0.32119749999999997,0.23963928,9.813675
1579011927383,-0.30204773,0.25160217,9.866348
1579011927389,-0.30923462,0.26118470000000005,9.878326
1579011927393,-0.29725647,0.20851135,9.823257
1579011927399,-0.30204773,0.23963928,9.851989999999999
1579011927404,-0.30204773,0.22286987,9.825652999999999
1579011927408,-0.28289795,0.19415283,9.856766
1579011927414,-0.306839,0.23963928,9.866348
1579011927419,-0.29486084,0.22286987,9.8471985
1579011927425,-0.2996521,0.21569824,9.823257
1579011927429,-0.2996521,0.21330261,9.863953
1579011927434,-0.33317566,0.20372010000000002,9.866348
1579011927440,-0.28767395,0.20372010000000002,9.83522
1579011927445,-0.29006958,0.26358032,9.828049
1579011927450,-0.31640625,0.23245239999999998,9.825652999999999
1579011927455,-0.28289795,0.20132446,9.820862
1579011927459,-0.28289795,0.20851135,9.856766
1579011927465,-0.28289795,0.23245239999999998,9.823257
1579011927470,-0.29486084,0.23245239999999998,9.811278999999999
1579011927475,-0.29725647,0.21090698,9.851989999999999
1579011927480,-0.27331543,0.22766113,9.861557000000001
1579011927484,-0.306839,0.25878906,9.799316000000001
1579011927490,-0.33078003,0.23963928,9.808883999999999
1579011927495,-0.2924652,0.23724365,9.849594
1579011927501,-0.2924652,0.2539978,9.825652999999999
1579011927506,-0.31640625,0.20851135,9.818466
1579011927510,-0.28767395,0.2204895,9.840012
1579011927516,-0.29006958,0.2252655,9.799316000000001
1579011927521,-0.31640625,0.2204895,9.837616
1579011927526,-0.31880188,0.2252655,9.837616
1579011927530,-0.28529358,0.21330261,9.840012
1579011927535,-0.2996521,0.21090698,9.840012
1579011927541,-0.30444336,0.2204895,9.830428999999999
1579011927546,-0.30923462,0.21809387,9.820862
1579011927550,-0.32359314,0.22766113,9.828049
1579011927556,-0.33078003,0.20372010000000002,9.813675
1579011927561,-0.2924652,0.2252655,9.851989999999999
1579011927567,-0.30923462,0.23484802,9.837616
1579011927571,-0.29006958,0.23724365,9.859161
1579011927577,-0.28529358,0.23724365,9.828049
1579011927582,-0.32359314,0.23245239999999998,9.828049
1579011927587,-0.30444336,0.22286987,9.811278999999999
1579011927591,-0.28767395,0.21090698,9.840012
1579011927597,-0.30204773,0.21569824,9.859161
1579011927602,-0.306839,0.24443054,9.842407000000001
1579011927607,-0.30923462,0.2204895,9.871139999999999
1579011927612,-0.29725647,0.24681091,9.842407000000001
1579011927616,-0.30444336,0.25160217,9.859161
1579011927621,-0.30923462,0.23005676,9.849594
1579011927627,-0.31640625,0.22766113,9.804092
1579011927631,-0.31163025,0.26358032,9.808883999999999
1579011927637,-0.31880188,0.23963928,9.832825
1579011927642,-0.2924652,0.22766113,9.878326
1579011927647,-0.27571106,0.22766113,9.851989999999999
1579011927653,-0.29486084,0.23484802,9.823257
1579011927658,-0.30923462,0.23484802,9.830428999999999
1579011927663,-0.28050232,0.22766113,9.842407000000001
1579011927667,-0.29486084,0.24203491,9.832825
1579011927672,-0.2996521,0.23245239999999998,9.851989999999999
1579011927677,-0.306839,0.22286987,9.856766
1579011927683,-0.3283844,0.22766113,9.861557000000001
1579011927688,-0.306839,0.23963928,9.854385
1579011927692,-0.31640625,0.23724365,9.8471985
1579011927697,-0.32598877,0.21809387,9.825652999999999
1579011927702,-0.31640625,0.21809387,9.820862
1579011927708,-0.2996521,0.23963928,9.859161
1579011927714,-0.306839,0.23245239999999998,9.825652999999999
1579011927719,-0.2996521,0.2252655,9.828049
1579011927723,-0.32359314,0.24681091,9.8471985
1579011927729,-0.31401062,0.23245239999999998,9.832825
1579011927734,-0.31163025,0.21809387,9.849594
1579011927739,-0.32598877,0.23724365,9.859161
1579011927744,-0.2924652,0.22286987,9.818466
1579011927749,-0.30923462,0.2252655,9.842407000000001
1579011927754,-0.31401062,0.20372010000000002,9.849594
1579011927759,-0.29486084,0.19415283,9.83522
1579011927764,-0.29725647,0.22766113,9.830428999999999
1579011927769,-0.2924652,0.20851135,9.868744
1579011927773,-0.29725647,0.23005676,9.823257
1579011927779,-0.30444336,0.25878906,9.789734
1579011927785,-0.28289795,0.21569824,9.840012
1579011927790,-0.28767395,0.24443054,9.868744
1579011927795,-0.31163025,0.23005676,9.854385
1579011927800,-0.32598877,0.2204895,9.859161
1579011927805,-0.31163025,0.19175720000000002,9.840012
1579011927810,-0.29006958,0.20851135,9.840012
1579011927814,-0.306839,0.24681091,9.842407000000001
1579011927819,-0.28289795,0.21809387,9.880707000000001
1579011927824,-0.31163025,0.23484802,9.849594
1579011927830,-0.30444336,0.23963928,9.844803
1579011927834,-0.31163025,0.25160217,9.844803
1579011927839,-0.2924652,0.2252655,9.825652999999999
1579011927844,-0.26612854,0.2252655,9.811278999999999
1579011927850,-0.2924652,0.23963928,9.818466
1579011927856,-0.31640625,0.23963928,9.849594
1579011927860,-0.31401062,0.21330261,9.840012
1579011927865,-0.31401062,0.23724365,9.856766
1579011927871,-0.29725647,0.23963928,9.849594
1579011927876,-0.33078003,0.2204895,9.801712
1579011927881,-0.31401062,0.2204895,9.794525
1579011927886,-0.29006958,0.24920654,9.837616
1579011927890,-0.29725647,0.23245239999999998,9.873535
1579011927896,-0.33078003,0.2204895,9.878326
1579011927901,-0.30204773,0.23245239999999998,9.8471985
1579011927906,-0.29486084,0.23484802,9.8471985
1579011927911,-0.31640625,0.23724365,9.825652999999999
1579011927916,-0.30204773,0.20851135,9.866348
1579011927920,-0.3283844,0.22766113,9.844803
1579011927926,-0.28529358,0.23963928,9.811278999999999
1579011927931,-0.29725647,0.19653320000000002,9.837616
1579011927936,-0.31640625,0.19892883,9.844803
1579011927942,-0.3283844,0.21330261,9.859161
1579011927947,-0.29486084,0.23484802,9.885498
1579011927951,-0.2996521,0.23005676,9.866348
1579011927957,-0.31640625,0.24203491,9.844803
1579011927962,-0.28050232,0.24203491,9.799316000000001
1579011927967,-0.30204773,0.27793884,9.854385
1579011927972,-0.30923462,0.23245239999999998,9.861557000000001
1579011927977,-0.31163025,0.21569824,9.840012
1579011927981,-0.32359314,0.22766113,9.856766
1579011927986,-0.29725647,0.23245239999999998,9.828049
1579011927992,-0.30204773,0.2539978,9.849594
1579011927997,-0.3283844,0.23245239999999998,9.854385
1579011928002,-0.30204773,0.21090698,9.832825
1579011928008,-0.28529358,0.21809387,9.830428999999999
1579011928012,-0.31163025,0.2204895,9.842407000000001
1579011928017,-0.32598877,0.24443054,9.863953
1579011928023,-0.30444336,0.23484802,9.842407000000001
1579011928027,-0.2996521,0.21330261,9.820862
1579011928033,-0.28767395,0.23724365,9.799316000000001
1579011928038,-0.2924652,0.19653320000000002,9.823257
1579011928043,-0.30444336,0.22766113,9.83522
1579011928048,-0.29725647,0.25878906,9.863953
1579011928053,-0.30444336,0.22286987,9.878326
1579011928058,-0.2996521,0.2252655,9.844803
1579011928063,-0.28767395,0.24443054,9.804092
1579011928068,-0.31401062,0.23245239999999998,9.818466
1579011928073,-0.30444336,0.23005676,9.832825
1579011928079,-0.29486084,0.20132446,9.830428999999999
1579011928083,-0.31163025,0.22286987,9.849594
1579011928089,-0.31401062,0.23963928,9.830428999999999
1579011928094,-0.3283844,0.23245239999999998,9.83522
1579011928098,-0.31880188,0.21090698,9.832825
1579011928103,-0.29006958,0.23245239999999998,9.830428999999999
1579011928109,-0.32598877,0.23724365,9.825652999999999
1579011928114,-0.33317566,0.2252655,9.844803
1579011928119,-0.2996521,0.21809387,9.849594
1579011928124,-0.29725647,0.21809387,9.851989999999999
1579011928128,-0.31163025,0.24443054,9.861557000000001
1579011928134,-0.32119749999999997,0.21330261,9.875931
1579011928138,-0.30204773,0.22766113,9.861557000000001
1579011928144,-0.31640625,0.23963928,9.8471985
1579011928150,-0.31880188,0.23005676,9.868744
1579011928155,-0.30204773,0.23963928,9.866348
1579011928160,-0.2996521,0.22286987,9.813675
1579011928164,-0.32359314,0.20851135,9.871139999999999
1579011928170,-0.31640625,0.25160217,9.861557000000001
1579011928175,-0.32359314,0.23005676,9.842407000000001
1579011928180,-0.29486084,0.2252655,9.832825
1579011928184,-0.29725647,0.22766113,9.840012
1579011928190,-0.28289795,0.2252655,9.828049
1579011928194,-0.28289795,0.20611572,9.840012
1579011928199,-0.2781067,0.19653320000000002,9.851989999999999
1579011928205,-0.27571106,0.22286987,9.825652999999999
1579011928209,-0.28289795,0.21569824,9.83522
1579011928215,-0.29486084,0.23484802,9.813675
1579011928221,-0.306839,0.23484802,9.825652999999999
1579011928226,-0.30923462,0.21809387,9.863953
1579011928231,-0.31880188,0.19892883,9.851989999999999
1579011928236,-0.306839,0.21569824,9.851989999999999
1579011928241,-0.30444336,0.24203491,9.837616
1579011928246,-0.30204773,0.24203491,9.851989999999999
1579011928250,-0.29725647,0.21809387,9.851989999999999
1579011928256,-0.2996521,0.20372010000000002,9.832825
1579011928261,-0.30923462,0.2204895,9.863953
1579011928266,-0.32598877,0.23484802,9.866348
1579011928270,-0.31880188,0.21090698,9.849594
1579011928276,-0.31401062,0.2252655,9.863953
1579011928281,-0.33557129999999996,0.24681091,9.8471985
1579011928286,-0.31401062,0.2252655,9.796921000000001
1579011928290,-0.29006958,0.23724365,9.823257
1579011928297,-0.29486084,0.22766113,9.844803
1579011928301,-0.3283844,0.21809387,9.837616
1579011928307,-0.31880188,0.2252655,9.8471985
1579011928312,-0.2781067,0.23005676,9.851989999999999
1579011928317,-0.28050232,0.23245239999999998,9.844803
1579011928322,-0.28289795,0.22286987,9.816071
1579011928327,-0.2996521,0.21330261,9.813675
1579011928332,-0.306839,0.21330261,9.83522
1579011928337,-0.31163025,0.19892883,9.844803
1579011928342,-0.306839,0.22766113,9.828049
1579011928347,-0.32119749999999997,0.23245239999999998,9.825652999999999
1579011928352,-0.2996521,0.23005676,9.832825
1579011928357,-0.31163025,0.22286987,9.840012
1579011928362,-0.3283844,0.23724365,9.842407000000001
1579011928368,-0.3403473,0.2252655,9.828049
1579011928373,-0.306839,0.2252655,9.861557000000001
1579011928378,-0.31640625,0.24203491,9.854385
1579011928383,-0.32119749999999997,0.23484802,9.856766
1579011928388,-0.31401062,0.21569824,9.828049
1579011928392,-0.28529358,0.23245239999999998,9.818466
1579011928398,-0.28767395,0.2204895,9.851989999999999
1579011928403,-0.30923462,0.21330261,9.871139999999999
1579011928407,-0.29725647,0.23005676,9.854385
1579011928413,-0.29006958,0.2204895,9.804092
1579011928418,-0.31163025,0.19415283,9.832825
1579011928422,-0.29725647,0.23005676,9.863953
1579011928427,-0.32598877,0.23245239999999998,9.844803
1579011928433,-0.2924652,0.21090698,9.8471985
1579011928438,-0.31401062,0.22766113,9.811278999999999
1579011928443,-0.31880188,0.22766113,9.820862
1579011928449,-0.33557129999999996,0.2204895,9.849594
1579011928454,-0.32119749999999997,0.24443054,9.871139999999999
1579011928459,-0.30923462,0.25160217,9.856766
1579011928464,-0.30204773,0.25639343,9.859161
1579011928469,-0.29725647,0.24203491,9.859161
1579011928474,-0.29486084,0.21090698,9.844803
1579011928479,-0.306839,0.2204895,9.854385
1579011928484,-0.29486084,0.21569824,9.816071
1579011928489,-0.2996521,0.23484802,9.828049
1579011928494,-0.30923462,0.22766113,9.844803
1579011928498,-0.32119749999999997,0.23005676,9.823257
1579011928503,-0.32598877,0.21330261,9.806488
1579011928508,-0.32119749999999997,0.22766113,9.8471985
1579011928514,-0.30923462,0.2252655,9.813675
1579011928519,-0.2924652,0.2204895,9.820862
1579011928524,-0.2996521,0.20851135,9.863953
1579011928530,-0.2996521,0.22766113,9.875931
1579011928534,-0.30923462,0.19892883,9.859161
1579011928539,-0.31163025,0.21809387,9.863953
1579011928544,-0.28529358,0.22286987,9.83522
1579011928550,-0.29725647,0.23245239999999998,9.837616
1579011928555,-0.31401062,0.2707672,9.837616
1579011928560,-0.29006958,0.23245239999999998,9.799316000000001
1579011928565,-0.32119749999999997,0.23245239999999998,9.818466
1579011928569,-0.31640625,0.21569824,9.854385
1579011928575,-0.306839,0.2252655,9.828049
1579011928580,-0.30204773,0.22286987,9.837616
1579011928585,-0.31401062,0.2252655,9.854385
1579011928591,-0.306839,0.21330261,9.840012
1579011928595,-0.306839,0.23245239999999998,9.828049
1579011928600,-0.31163025,0.24443054,9.878326
1579011928606,-0.29725647,0.23005676,9.816071
1579011928611,-0.31401062,0.23245239999999998,9.859161
1579011928616,-0.29006958,0.24443054,9.861557000000001
1579011928621,-0.306839,0.20851135,9.823257
1579011928625,-0.30923462,0.23005676,9.83522
1579011928631,-0.29725647,0.2204895,9.83522
1579011928636,-0.2781067,0.21569824,9.813675
1579011928640,-0.29725647,0.23484802,9.813675
1579011928646,-0.27331543,0.23005676,9.804092
1579011928651,-0.29006958,0.24681091,9.837616
1579011928655,-0.30204773,0.2252655,9.837616
1579011928662,-0.31640625,0.23484802,9.837616
1579011928666,-0.2996521,0.2252655,9.840012
1579011928672,-0.31401062,0.21569824,9.871139999999999
1579011928676,-0.306839,0.20611572,9.868744
1579011928682,-0.2996521,0.2204895,9.859161
1579011928687,-0.29725647,0.24443054,9.840012
1579011928692,-0.30923462,0.23724365,9.851989999999999
1579011928696,-0.31880188,0.22286987,9.840012
1579011928702,-0.30444336,0.21809387,9.830428999999999
1579011928706,-0.27331543,0.23963928,9.849594
1579011928711,-0.2996521,0.2252655,9.854385
1579011928717,-0.28289795,0.2252655,9.844803
1579011928721,-0.2924652,0.2204895,9.859161
1579011928726,-0.306839,0.23245239999999998,9.842407000000001
1579011928732,-0.31163025,0.22286987,9.849594
1579011928738,-0.30923462,0.24203491,9.840012
1579011928743,-0.3283844,0.20611572,9.8471985
1579011928747,-0.31163025,0.21809387,9.804092
1579011928753,-0.306839,0.23005676,9.823257
1579011928757,-0.2924652,0.22286987,9.844803
1579011928763,-0.29725647,0.21809387,9.83522
1579011928768,-0.2924652,0.20851135,9.8471985
1579011928773,-0.29006958,0.22766113,9.842407000000001
1579011928777,-0.30923462,0.23245239999999998,9.840012
1579011928783,-0.31401062,0.23245239999999998,9.804092
1579011928788,-0.30204773,0.22286987,9.820862
1579011928792,-0.28767395,0.21090698,9.820862
1579011928798,-0.29006958,0.23484802,9.808883999999999
1579011928804,-0.306839,0.23484802,9.844803
1579011928809,-0.27331543,0.24203491,9.832825
1579011928814,-0.2996521,0.22766113,9.840012
1579011928819,-0.31640625,0.22286987,9.868744
1579011928824,-0.28050232,0.24443054,9.866348
1579011928829,-0.30204773,0.24920654,9.830428999999999
1579011928834,-0.29006958,0.21809387,9.849594
1579011928839,-0.28050232,0.22766113,9.861557000000001
1579011928844,-0.30923462,0.23245239999999998,9.871139999999999
1579011928849,-0.30204773,0.23245239999999998,9.840012
1579011928853,-0.31163025,0.20851135,9.823257
1579011928858,-0.2996521,0.21090698,9.832825
1579011928863,-0.30444336,0.21090698,9.856766
1579011928869,-0.31163025,0.2252655,9.863953
1579011928874,-0.29725647,0.20132446,9.811278999999999
1579011928880,-0.2996521,0.21569824,9.849594
1579011928885,-0.27331543,0.21569824,9.808883999999999
1579011928890,-0.31163025,0.23245239999999998,9.813675
1579011928895,-0.31401062,0.24681091,9.823257
1579011928900,-0.30444336,0.21330261,9.859161
1579011928904,-0.2924652,0.19415283,9.844803
1579011928910,-0.2709198,0.22286987,9.832825
1579011928914,-0.31401062,0.24203491,9.837616
1579011928920,-0.32359314,0.21330261,9.801712
1579011928925,-0.31640625,0.19653320000000002,9.832825
1579011928930,-0.30444336,0.2539978,9.844803
1579011928935,-0.31640625,0.22286987,9.875931
1579011928940,-0.31401062,0.21569824,9.816071
1579011928945,-0.29486084,0.2252655,9.842407000000001
1579011928951,-0.32598877,0.21330261,9.868744
1579011928956,-0.31401062,0.2204895,9.818466
1579011928961,-0.31401062,0.24203491,9.83522
1579011928966,-0.30444336,0.24681091,9.849594
1579011928971,-0.30923462,0.22766113,9.832825
1579011928976,-0.32598877,0.22286987,9.8471985
1579011928981,-0.33317566,0.21090698,9.844803
1579011928986,-0.31880188,0.21330261,9.799316000000001
1579011928991,-0.2996521,0.22766113,9.837616
1579011928996,-0.31401062,0.23245239999999998,9.823257
1579011929001,-0.29006958,0.19653320000000002,9.83522
1579011929006,-0.31880188,0.21569824,9.863953
1579011929010,-0.32119749999999997,0.21330261,9.859161
1579011929016,-0.32359314,0.21569824,9.823257
1579011929022,-0.29486084,0.21330261,9.823257
1579011929027,-0.31880188,0.24920654,9.808883999999999
1579011929032,-0.306839,0.2204895,9.856766
1579011929037,-0.28289795,0.21569824,9.866348
1579011929041,-0.29486084,0.23724365,9.861557000000001
1579011929047,-0.31163025,0.22766113,9.830428999999999
1579011929052,-0.3283844,0.23484802,9.837616
1579011929057,-0.31163025,0.23724365,9.840012
1579011929062,-0.31640625,0.20611572,9.837616
1579011929067,-0.31163025,0.22286987,9.825652999999999
1579011929072,-0.29725647,0.26837158,9.840012
1579011929077,-0.33317566,0.22286987,9.8471985
1579011929082,-0.30444336,0.21330261,9.851989999999999
1579011929087,-0.2924652,0.23245239999999998,9.863953
1579011929092,-0.2924652,0.23484802,9.844803
1579011929098,-0.30923462,0.20851135,9.794525
1579011929103,-0.29725647,0.20132446,9.840012
1579011929108,-0.29006958,0.23724365,9.873535
1579011929113,-0.2781067,0.24443054,9.880707000000001
1579011929117,-0.27571106,0.23005676,9.859161
1579011929122,-0.28050232,0.19892883,9.806488
1579011929128,-0.29486084,0.23005676,9.849594
1579011929133,-0.31163025,0.23484802,9.832825
1579011929137,-0.29006958,0.23724365,9.83522
1579011929142,-0.2996521,0.21569824,9.83522
1579011929148,-0.29725647,0.23005676,9.825652999999999
1579011929152,-0.2924652,0.22766113,9.837616
1579011929158,-0.28767395,0.21569824,9.832825
1579011929163,-0.29486084,0.23005676,9.830428999999999
1579011929168,-0.31163025,0.24920654,9.832825
1579011929173,-0.29486084,0.21809387,9.854385
1579011929179,-0.28529358,0.26118470000000005,9.844803
1579011929183,-0.29725647,0.23245239999999998,9.832825
1579011929188,-0.3283844,0.21090698,9.844803
1579011929193,-0.306839,0.21809387,9.854385
1579011929198,-0.32119749999999997,0.23963928,9.818466
1579011929203,-0.32119749999999997,0.22286987,9.844803
1579011929209,-0.30204773,0.21330261,9.840012
1579011929214,-0.306839,0.21809387,9.830428999999999
1579011929219,-0.33796692,0.23005676,9.842407000000001
1579011929223,-0.31880188,0.20372010000000002,9.875931
1579011929229,-0.28767395,0.24203491,9.806488
1579011929233,-0.29006958,0.23963928,9.816071
1579011929239,-0.28767395,0.22766113,9.837616
1579011929244,-0.28767395,0.20132446,9.844803
1579011929250,-0.28289795,0.20132446,9.842407000000001
1579011929255,-0.29486084,0.20851135,9.842407000000001
1579011929260,-0.29725647,0.23005676,9.849594
1579011929265,-0.306839,0.21569824,9.849594
1579011929270,-0.29725647,0.24681091,9.859161
1579011929274,-0.2996521,0.23724365,9.83522
1579011929279,-0.31880188,0.2252655,9.840012
1579011929284,-0.32359314,0.23245239999999998,9.796921000000001
1579011929289,-0.3283844,0.21569824,9.854385
1579011929295,-0.29486084,0.23245239999999998,9.866348
1579011929300,-0.2924652,0.23005676,9.804092
1579011929305,-0.31640625,0.22286987,9.820862
1579011929310,-0.32119749999999997,0.23245239999999998,9.842407000000001
1579011929316,-0.306839,0.20372010000000002,9.844803
1579011929320,-0.28050232,0.2252655,9.837616
1579011929326,-0.29725647,0.20611572,9.8471985
1579011929330,-0.306839,0.23245239999999998,9.830428999999999
1579011929336,-0.28529358,0.22766113,9.837616
1579011929341,-0.306839,0.2204895,9.837616
1579011929346,-0.2924652,0.21330261,9.818466
1579011929351,-0.30923462,0.24203491,9.863953
1579011929356,-0.2996521,0.20611572,9.844803
1579011929361,-0.32359314,0.20851135,9.83522
1579011929366,-0.30444336,0.24681091,9.825652999999999
1579011929370,-0.28050232,0.23484802,9.871139999999999
1579011929375,-0.2924652,0.22286987,9.828049
1579011929380,-0.32598877,0.2204895,9.83522
1579011929387,-0.2996521,0.20132446,9.856766
1579011929392,-0.28289795,0.21090698,9.811278999999999
1579011929397,-0.27331543,0.20851135,9.823257
1579011929401,-0.28529358,0.23245239999999998,9.828049
1579011929406,-0.30444336,0.23484802,9.8471985
1579011929411,-0.30923462,0.23963928,9.840012
1579011929417,-0.2996521,0.2252655,9.851989999999999
1579011929421,-0.29725647,0.24443054,9.828049
1579011929427,-0.33078003,0.24920654,9.808883999999999
1579011929431,-0.29006958,0.22286987,9.8471985
1579011929436,-0.2781067,0.21090698,9.837616
1579011929441,-0.31880188,0.23484802,9.849594
1579011929447,-0.32598877,0.24681091,9.863953
1579011929452,-0.2924652,0.23484802,9.840012
1579011929458,-0.29725647,0.23005676,9.866348
1579011929463,-0.2996521,0.23724365,9.83522
1579011929468,-0.29725647,0.24681091,9.83522
1579011929473,-0.30923462,0.23724365,9.811278999999999
1579011929477,-0.2996521,0.21330261,9.813675
1579011929482,-0.29486084,0.22766113,9.806488
1579011929488,-0.33317566,0.23724365,9.837616
1579011929493,-0.31880188,0.23005676,9.832825
1579011929497,-0.2924652,0.23963928,9.840012
1579011929503,-0.29725647,0.21090698,9.837616
1579011929508,-0.31401062,0.2252655,9.823257
1579011929513,-0.29006958,0.2252655,9.820862
1579011929517,-0.29725647,0.23245239999999998,9.816071
1579011929523,-0.2924652,0.23724365,9.828049
1579011929528,-0.31163025,0.22766113,9.832825
1579011929534,-0.29725647,0.21090698,9.806488
1579011929538,-0.29725647,0.21090698,9.830428999999999
1579011929544,-0.32359314,0.23484802,9.840012
1579011929549,-0.32598877,0.24203491,9.849594
1579011929553,-0.28529358,0.20611572,9.823257
1579011929559,-0.30444336,0.20851135,9.840012
1579011929564,-0.31640625,0.23484802,9.806488
1579011929569,-0.30923462,0.2204895,9.813675
1579011929573,-0.31640625,0.23963928,9.840012
1579011929578,-0.306839,0.26118470000000005,9.837616
1579011929584,-0.28050232,0.2252655,9.820862
1579011929588,-0.29725647,0.2252655,9.811278999999999
1579011929593,-0.30204773,0.24681091,9.825652999999999
1579011929599,-0.29486084,0.24920654,9.863953
1579011929605,-0.28050232,0.25160217,9.897476
1579011929609,-0.27331543,0.20132446,9.861557000000001
1579011929615,-0.29486084,0.2204895,9.837616
1579011929620,-0.27331543,0.21569824,9.828049
1579011929625,-0.30444336,0.21330261,9.828049
1579011929630,-0.30204773,0.24203491,9.823257
1579011929635,-0.29725647,0.24681091,9.837616
1579011929639,-0.30204773,0.20132446,9.880707000000001
1579011929645,-0.306839,0.22766113,9.842407000000001
1579011929650,-0.30444336,0.21809387,9.866348
1579011929655,-0.31163025,0.22766113,9.830428999999999
1579011929659,-0.29725647,0.2204895,9.796921000000001
1579011929665,-0.30444336,0.23963928,9.830428999999999
1579011929670,-0.31163025,0.24920654,9.828049
1579011929676,-0.30444336,0.22766113,9.825652999999999
1579011929681,-0.31163025,0.20611572,9.837616
1579011929686,-0.31880188,0.23724365,9.832825
1579011929690,-0.32119749999999997,0.21809387,9.830428999999999
1579011929696,-0.32598877,0.23484802,9.830428999999999
1579011929701,-0.29006958,0.23724365,9.825652999999999
1579011929706,-0.33078003,0.20851135,9.837616
1579011929711,-0.31640625,0.21330261,9.844803
1579011929716,-0.2924652,0.21090698,9.851989999999999
1579011929721,-0.31401062,0.2204895,9.837616
1579011929726,-0.30923462,0.23724365,9.823257
1579011929730,-0.2996521,0.23963928,9.828049
1579011929736,-0.30204773,0.22286987,9.828049
1579011929740,-0.30204773,0.24920654,9.844803
1579011929746,-0.2924652,0.23484802,9.825652999999999
1579011929751,-0.30923462,0.21809387,9.816071
1579011929757,-0.30204773,0.22286987,9.811278999999999
1579011929761,-0.29486084,0.21569824,9.837616
1579011929767,-0.306839,0.21330261,9.832825
1579011929772,-0.30923462,0.22766113,9.811278999999999
1579011929777,-0.32598877,0.22286987,9.804092
1579011929782,-0.28767395,0.20851135,9.837616
1579011929787,-0.2996521,0.23005676,9.837616
1579011929791,-0.30923462,0.23484802,9.842407000000001
1579011929796,-0.29486084,0.23484802,9.849594
1579011929801,-0.28289795,0.23245239999999998,9.816071
1579011929806,-0.2924652,0.2204895,9.830428999999999
1579011929812,-0.306839,0.21569824,9.851989999999999
1579011929817,-0.2924652,0.2252655,9.801712
1579011929823,-0.30444336,0.2252655,9.842407000000001
1579011929828,-0.2996521,0.22766113,9.813675
1579011929833,-0.30444336,0.24203491,9.863953
1579011929838,-0.31880188,0.23963928,9.854385
1579011929842,-0.29725647,0.21330261,9.851989999999999
1579011929848,-0.29486084,0.2204895,9.823257
1579011929852,-0.28529358,0.20611572,9.808883999999999
1579011929857,-0.306839,0.19653320000000002,9.840012
1579011929863,-0.2924652,0.24681091,9.832825
1579011929867,-0.31163025,0.25878906,9.840012
1579011929873,-0.306839,0.23245239999999998,9.878326
1579011929877,-0.29006958,0.2204895,9.828049
1579011929882,-0.31163025,0.23005676,9.830428999999999
1579011929887,-0.28767395,0.23245239999999998,9.828049
1579011929893,-0.29006958,0.21330261,9.83522
1579011929899,-0.2996521,0.23484802,9.820862
1579011929903,-0.2781067,0.23484802,9.8471985
1579011929909,-0.2996521,0.19653320000000002,9.849594
1579011929914,-0.3403473,0.21569824,9.830428999999999
1579011929918,-0.29006958,0.23005676,9.868744
1579011929923,-0.29486084,0.21809387,9.777771000000001
1579011929929,-0.33317566,0.23005676,9.818466
1579011929934,-0.2996521,0.25639343,9.892685
1579011929939,-0.28767395,0.25878906,9.746642999999999
1579011929943,-0.30923462,0.23005676,9.830428999999999
1579011929948,-0.28767395,0.21809387,9.899872
1579011929954,-0.28767395,0.22286987,9.784943
1579011929959,-0.2924652,0.18936157,9.828049
1579011929963,-0.30923462,0.23005676,9.878326
1579011929970,-0.28050232,0.22766113,9.816071
1579011929974,-0.28767395,0.24203491,9.840012
1579011929980,-0.306839,0.23245239999999998,9.866348
1579011929984,-0.30444336,0.22286987,9.828049
1579011929990,-0.31401062,0.21330261,9.832825
1579011929995,-0.30444336,0.24920654,9.840012
1579011929999,-0.29486084,0.21809387,9.83522
1579011930004,-0.28289795,0.20372010000000002,9.859161
1579011930010,-0.31880188,0.20132446,9.844803
1579011930014,-0.30204773,0.19175720000000002,9.830428999999999
1579011930019,-0.2924652,0.22286987,9.804092
1579011930025,-0.2924652,0.23245239999999998,9.8471985
1579011930029,-0.29486084,0.23484802,9.840012
1579011930034,-0.2996521,0.23245239999999998,9.808883999999999
1579011930040,-0.30444336,0.21330261,9.832825
1579011930046,-0.31401062,0.23724365,9.832825
1579011930050,-0.31640625,0.23005676,9.873535
1579011930055,-0.3283844,0.20372010000000002,9.866348
1579011930061,-0.306839,0.21090698,9.849594
1579011930065,-0.30444336,0.24203491,9.8471985
1579011930070,-0.32119749999999997,0.21569824,9.820862
1579011930076,-0.32359314,0.23005676,9.844803
1579011930080,-0.28289795,0.23724365,9.849594
1579011930085,-0.2781067,0.23963928,9.878326
1579011930091,-0.30444336,0.24203491,9.832825
1579011930095,-0.2709198,0.21569824,9.828049
1579011930100,-0.26852417,0.17738342,9.875931
1579011930106,-0.31880188,0.21569824,9.851989999999999
1579011930112,-0.30204773,0.21330261,9.842407000000001
1579011930117,-0.31401062,0.18457031,9.828049
1579011930121,-0.30444336,0.21090698,9.830428999999999
1579011930127,-0.27331543,0.19892883,9.816071
1579011930132,-0.32119749999999997,0.19892883,9.830428999999999
1579011930136,-0.30923462,0.23724365,9.840012
1579011930141,-0.28529358,0.22766113,9.801712
1579011930147,-0.30204773,0.24920654,9.880707000000001
1579011930152,-0.28050232,0.24681091,9.868744
1579011930157,-0.31401062,0.25160217,9.851989999999999
1579011930162,-0.3403473,0.21569824,9.825652999999999
1579011930167,-0.29486084,0.21569824,9.801712
1579011930171,-0.28767395,0.22286987,9.820862
1579011930176,-0.30923462,0.20611572,9.830428999999999
1579011930182,-0.28767395,0.24681091,9.818466
1579011930188,-0.2996521,0.26837158,9.830428999999999
1579011930192,-0.27571106,0.21809387,9.837616
1579011930197,-0.30204773,0.25160217,9.8471985
1579011930203,-0.31640625,0.22766113,9.851989999999999
1579011930207,-0.30444336,0.22286987,9.861557000000001
1579011930213,-0.306839,0.21330261,9.830428999999999
1579011930218,-0.30444336,0.19892883,9.806488
1579011930222,-0.2996521,0.2204895,9.813675
1579011930228,-0.2996521,0.21569824,9.806488
1579011930233,-0.28289795,0.21090698,9.8471985
1579011930237,-0.2924652,0.19653320000000002,9.866348
1579011930243,-0.28289795,0.2204895,9.832825
1579011930247,-0.28767395,0.24681091,9.837616
1579011930253,-0.28289795,0.23245239999999998,9.854385
1579011930259,-0.29006958,0.21569824,9.813675
1579011930264,-0.2996521,0.21569824,9.837616
1579011930269,-0.31640625,0.22766113,9.856766
1579011930274,-0.30204773,0.2252655,9.818466
1579011930279,-0.34513855,0.19892883,9.823257
1579011930284,-0.31163025,0.22766113,9.83522
1579011930289,-0.2996521,0.23484802,9.828049
1579011930294,-0.28767395,0.2252655,9.813675
1579011930299,-0.31880188,0.2252655,9.808883999999999
1579011930303,-0.29006958,0.21569824,9.854385
1579011930309,-0.29725647,0.22286987,9.851989999999999
1579011930314,-0.31163025,0.24203491,9.811278999999999
1579011930319,-0.30923462,0.23963928,9.859161
1579011930324,-0.31401062,0.2252655,9.840012
1579011930329,-0.29006958,0.18457031,9.825652999999999
1579011930334,-0.30444336,0.23484802,9.806488
1579011930340,-0.32359314,0.22766113,9.823257
1579011930345,-0.30444336,0.20851135,9.820862
1579011930350,-0.29486084,0.20851135,9.83522
1579011930355,-0.32598877,0.24443054,9.840012
1579011930360,-0.32119749999999997,0.21809387,9.837616
1579011930365,-0.30204773,0.18936157,9.83522
1579011930370,-0.31401062,0.24203491,9.861557000000001
1579011930375,-0.2996521,0.23963928,9.859161
1579011930380,-0.31401062,0.23245239999999998,9.837616
1579011930384,-0.32119749999999997,0.2539978,9.854385
1579011930389,-0.2781067,0.24681091,9.851989999999999
1579011930395,-0.27331543,0.23245239999999998,9.863953
1579011930400,-0.28289795,0.23484802,9.8471985
1579011930406,-0.32119749999999997,0.24920654,9.830428999999999
1579011930411,-0.32598877,0.2252655,9.844803
1579011930416,-0.30444336,0.20851135,9.854385
1579011930420,-0.30444336,0.2204895,9.818466
1579011930425,-0.30923462,0.22766113,9.830428999999999
1579011930431,-0.2924652,0.23724365,9.842407000000001
1579011930436,-0.30444336,0.21809387,9.828049
1579011930441,-0.2996521,0.20132446,9.832825
1579011930446,-0.2996521,0.23484802,9.8471985
1579011930450,-0.29006958,0.21569824,9.856766
1579011930455,-0.31401062,0.19175720000000002,9.83522
1579011930461,-0.30444336,0.2252655,9.842407000000001
1579011930465,-0.30923462,0.21809387,9.875931
1579011930471,-0.3283844,0.20611572,9.868744
1579011930477,-0.28289795,0.21569824,9.837616
1579011930481,-0.29725647,0.2204895,9.832825
1579011930486,-0.28767395,0.25639343,9.837616
1579011930492,-0.28529358,0.22766113,9.811278999999999
1579011930497,-0.30204773,0.23963928,9.854385
1579011930501,-0.30204773,0.20851135,9.83522
1579011930506,-0.2924652,0.2252655,9.799316000000001
1579011930512,-0.32598877,0.23724365,9.8471985
1579011930516,-0.31401062,0.21330261,9.863953
1579011930521,-0.29486084,0.21330261,9.844803
1579011930527,-0.28767395,0.21330261,9.854385
1579011930531,-0.2924652,0.2204895,9.856766
1579011930537,-0.30204773,0.19415283,9.842407000000001
1579011930542,-0.33317566,0.20372010000000002,9.863953
1579011930547,-0.29725647,0.21330261,9.837616
1579011930553,-0.29006958,0.22286987,9.823257
1579011930558,-0.31640625,0.17977905,9.823257
1579011930563,-0.29725647,0.20372010000000002,9.83522
1579011930568,-0.31163025,0.19892883,9.799316000000001
1579011930573,-0.2924652,0.2204895,9.777771000000001
1579011930577,-0.30204773,0.21330261,9.842407000000001
1579011930583,-0.2996521,0.23005676,9.851989999999999
1579011930588,-0.2924652,0.21330261,9.823257
1579011930593,-0.2996521,0.23245239999999998,9.856766
1579011930597,-0.29006958,0.21809387,9.837616
1579011930603,-0.29486084,0.21330261,9.830428999999999
1579011930607,-0.3283844,0.23245239999999998,9.830428999999999
1579011930612,-0.30444336,0.24443054,9.842407000000001
1579011930618,-0.30444336,0.20851135,9.851989999999999
1579011930623,-0.30444336,0.2252655,9.830428999999999
1579011930628,-0.28529358,0.2252655,9.830428999999999
1579011930634,-0.2996521,0.20611572,9.828049
1579011930638,-0.2924652,0.22286987,9.828049
1579011930643,-0.30204773,0.21090698,9.801712
1579011930648,-0.28767395,0.19892883,9.856766
1579011930654,-0.2924652,0.22766113,9.863953
1579011930658,-0.28767395,0.22286987,9.844803
1579011930664,-0.2996521,0.21569824,9.823257
1579011930668,-0.30204773,0.23724365,9.844803
1579011930674,-0.2996521,0.23005676,9.823257
1579011930678,-0.30444336,0.20851135,9.820862
1579011930684,-0.30444336,0.23245239999999998,9.813675
1579011930689,-0.29006958,0.2252655,9.830428999999999
1579011930695,-0.306839,0.20372010000000002,9.854385
1579011930700,-0.31640625,0.2252655,9.854385
1579011930705,-0.2781067,0.23005676,9.842407000000001
1579011930709,-0.2996521,0.23963928,9.880707000000001
1579011930714,-0.306839,0.25160217,9.837616
1579011930719,-0.31401062,0.24203491,9.844803
1579011930725,-0.31163025,0.20611572,9.830428999999999
1579011930730,-0.29725647,0.21330261,9.832825
1579011930735,-0.2996521,0.2539978,9.811278999999999
1579011930740,-0.32598877,0.23484802,9.873535
1579011930744,-0.30204773,0.24443054,9.863953
1579011930749,-0.306839,0.2204895,9.818466
1579011930755,-0.31163025,0.21330261,9.83522
1579011930759,-0.31880188,0.23245239999999998,9.837616
1579011930766,-0.30923462,0.23484802,9.816071
1579011930771,-0.306839,0.23963928,9.844803
1579011930776,-0.2924652,0.24203491,9.849594
1579011930780,-0.30444336,0.21809387,9.801712
1579011930786,-0.31401062,0.20372010000000002,9.837616
1579011930790,-0.33078003,0.21809387,9.859161
1579011930795,-0.306839,0.24203491,9.883102000000001
1579011930801,-0.29725647,0.24681091,9.849594
1579011930806,-0.31401062,0.23005676,9.823257
1579011930810,-0.33078003,0.21809387,9.842407000000001
1579011930815,-0.2996521,0.23963928,9.823257
1579011930821,-0.31401062,0.26118470000000005,9.813675
1579011930825,-0.31401062,0.23484802,9.837616
1579011930831,-0.31640625,0.21809387,9.818466
1579011930836,-0.31163025,0.23724365,9.856766
1579011930841,-0.31163025,0.21569824,9.823257
1579011930847,-0.32119749999999997,0.20132446,9.856766
1579011930851,-0.33317566,0.23005676,9.842407000000001
1579011930857,-0.29725647,0.21569824,9.849594
1579011930862,-0.29006958,0.19415283,9.866348
1579011930867,-0.2996521,0.22286987,9.851989999999999
1579011930872,-0.30444336,0.2252655,9.828049
1579011930877,-0.29006958,0.19415283,9.820862
1579011930881,-0.29486084,0.20851135,9.837616
1579011930887,-0.29006958,0.2204895,9.823257
1579011930892,-0.28529358,0.20132446,9.837616
1579011930897,-0.31401062,0.21330261,9.823257
1579011930902,-0.2996521,0.23005676,9.8471985
1579011930906,-0.28767395,0.21809387,9.808883999999999
1579011930912,-0.27571106,0.21569824,9.83522
1579011930917,-0.31163025,0.24443054,9.820862
1579011930923,-0.306839,0.2539978,9.806488
1579011930928,-0.31163025,0.23724365,9.837616
1579011930932,-0.31401062,0.23245239999999998,9.856766
1579011930937,-0.29486084,0.2204895,9.830428999999999
1579011930943,-0.30204773,0.23245239999999998,9.8471985
1579011930948,-0.29486084,0.22286987,9.825652999999999
1579011930953,-0.2996521,0.21090698,9.866348
1579011930958,-0.30444336,0.23484802,9.868744
1579011930963,-0.30204773,0.21330261,9.816071
1579011930967,-0.30444336,0.21330261,9.856766
1579011930973,-0.28529358,0.2252655,9.851989999999999
1579011930978,-0.29725647,0.23005676,9.873535
1579011930983,-0.2996521,0.24203491,9.837616
1579011930988,-0.31640625,0.21330261,9.828049
1579011930994,-0.30204773,0.20132446,9.856766
1579011930998,-0.31163025,0.2204895,9.811278999999999
1579011931004,-0.2996521,0.20611572,9.818466
1579011931009,-0.2924652,0.22286987,9.825652999999999
1579011931013,-0.31640625,0.20851135,9.825652999999999
1579011931019,-0.29486084,0.20851135,9.83522
1579011931024,-0.28529358,0.20611572,9.8471985
1579011931029,-0.2996521,0.21330261,9.849594
1579011931033,-0.30444336,0.23724365,9.808883999999999
1579011931039,-0.31640625,0.24203491,9.823257
1579011931043,-0.31401062,0.21809387,9.883102000000001
1579011931048,-0.30204773,0.2252655,9.837616
1579011931054,-0.30444336,0.22286987,9.837616
1579011931060,-0.2709198,0.2252655,9.83522
1579011931064,-0.2924652,0.2204895,9.851989999999999
1579011931069,-0.29006958,0.2252655,9.837616
1579011931075,-0.29486084,0.20851135,9.844803
1579011931080,-0.306839,0.21090698,9.851989999999999
1579011931085,-0.30204773,0.23005676,9.825652999999999
1579011931089,-0.28529358,0.23005676,9.8471985
1579011931095,-0.306839,0.2204895,9.828049
1579011931100,-0.30204773,0.21809387,9.842407000000001
1579011931105,-0.2996521,0.23245239999999998,9.830428999999999
1579011931110,-0.29486084,0.21569824,9.825652999999999
1579011931115,-0.31163025,0.20132446,9.868744
1579011931119,-0.2924652,0.21569824,9.83522
1579011931125,-0.2924652,0.2204895,9.854385
1579011931131,-0.30444336,0.23005676,9.830428999999999
1579011931135,-0.31640625,0.22286987,9.866348
1579011931141,-0.32598877,0.23005676,9.832825
1579011931146,-0.306839,0.22286987,9.854385
1579011931151,-0.32598877,0.21809387,9.830428999999999
1579011931155,-0.30444336,0.2204895,9.851989999999999
1579011931161,-0.33796692,0.23484802,9.844803
1579011931166,-0.2924652,0.2204895,9.844803
1579011931171,-0.29486084,0.23484802,9.828049
1579011931175,-0.30204773,0.22766113,9.808883999999999
1579011931180,-0.29725647,0.20851135,9.842407000000001
1579011931186,-0.30204773,0.20611572,9.851989999999999
1579011931191,-0.28767395,0.21090698,9.842407000000001
1579011931195,-0.29486084,0.24443054,9.851989999999999
1579011931201,-0.2996521,0.22286987,9.842407000000001
1579011931207,-0.28289795,0.21330261,9.859161
1579011931212,-0.2781067,0.20851135,9.837616
1579011931217,-0.32119749999999997,0.21809387,9.825652999999999
1579011931222,-0.32598877,0.23245239999999998,9.863953
1579011931227,-0.28767395,0.2252655,9.832825
1579011931232,-0.29006958,0.20611572,9.811278999999999
1579011931237,-0.31401062,0.23005676,9.823257
1579011931241,-0.30204773,0.21809387,9.83522
1579011931247,-0.29486084,0.23484802,9.77298
1579011931252,-0.29725647,0.24920654,9.832825
1579011931256,-0.31880188,0.20132446,9.854385
1579011931262,-0.32119749999999997,0.2204895,9.832825
1579011931267,-0.29486084,0.2252655,9.840012
1579011931271,-0.2996521,0.20851135,9.871139999999999
1579011931278,-0.30204773,0.23245239999999998,9.854385
1579011931283,-0.31880188,0.22766113,9.849594
1579011931288,-0.29725647,0.21090698,9.866348
1579011931293,-0.28529358,0.23484802,9.83522
1579011931298,-0.28767395,0.2252655,9.811278999999999
1579011931303,-0.31880188,0.22766113,9.854385
1579011931308,-0.29006958,0.22766113,9.856766
1579011931313,-0.32359314,0.20851135,9.830428999999999
1579011931318,-0.3283844,0.2204895,9.811278999999999
1579011931322,-0.3283844,0.2252655,9.840012
1579011931328,-0.2996521,0.24443054,9.856766
1579011931333,-0.29725647,0.20611572,9.883102000000001
1579011931338,-0.30444336,0.20851135,9.832825
1579011931342,-0.2996521,0.20611572,9.849594
1579011931349,-0.28050232,0.22286987,9.8471985
1579011931353,-0.27571106,0.22286987,9.8471985
1579011931359,-0.2781067,0.23963928,9.844803
1579011931364,-0.30204773,0.2252655,9.871139999999999
1579011931369,-0.31640625,0.20851135,9.8471985
1579011931374,-0.31163025,0.2252655,9.875931
1579011931378,-0.30444336,0.20851135,9.837616
1579011931383,-0.3283844,0.20132446,9.8471985
1579011931389,-0.31640625,0.23005676,9.837616
1579011931394,-0.31163025,0.2252655,9.828049
1579011931399,-0.2996521,0.21809387,9.813675
1579011931403,-0.29006958,0.2252655,9.825652999999999
1579011931408,-0.31163025,0.26118470000000005,9.83522
1579011931414,-0.31880188,0.23484802,9.842407000000001
1579011931420,-0.30444336,0.23724365,9.861557000000001
1579011931424,-0.30444336,0.23484802,9.816071
1579011931429,-0.2924652,0.21330261,9.83522
1579011931435,-0.28289795,0.23005676,9.854385
1579011931439,-0.28529358,0.23005676,9.844803
1579011931444,-0.31163025,0.20611572,9.844803
1579011931450,-0.28050232,0.21330261,9.844803
1579011931455,-0.31163025,0.23484802,9.844803
1579011931459,-0.31640625,0.22766113,9.842407000000001
1579011931465,-0.28529358,0.22286987,9.859161
1579011931469,-0.31163025,0.25160217,9.844803
1579011931474,-0.32119749999999997,0.23245239999999998,9.863953
1579011931479,-0.32598877,0.2539978,9.8471985
1579011931485,-0.31163025,0.21569824,9.823257
1579011931490,-0.32119749999999997,0.23005676,9.851989999999999
1579011931496,-0.32119749999999997,0.23245239999999998,9.808883999999999
1579011931501,-0.31163025,0.22286987,9.828049
1579011931506,-0.29725647,0.23484802,9.837616
1579011931511,-0.30204773,0.21809387,9.866348
1579011931516,-0.31640625,0.23484802,9.863953
1579011931521,-0.2996521,0.22286987,9.849594
1579011931525,-0.32598877,0.2252655,9.844803
1579011931531,-0.2996521,0.20851135,9.871139999999999
1579011931535,-0.31401062,0.20132446,9.868744
1579011931541,-0.2996521,0.22766113,9.863953
1579011931546,-0.32359314,0.23005676,9.849594
1579011931551,-0.30444336,0.22286987,9.856766
1579011931556,-0.29486084,0.20611572,9.823257
1579011931560,-0.2924652,0.2204895,9.820862
1579011931567,-0.30923462,0.21809387,9.813675
1579011931572,-0.28529358,0.23484802,9.837616
1579011931577,-0.30923462,0.21569824,9.8471985
1579011931581,-0.32119749999999997,0.24681091,9.83522
1579011931586,-0.28767395,0.23724365,9.808883999999999
1579011931592,-0.27331543,0.2252655,9.832825
1579011931596,-0.2924652,0.2252655,9.849594
1579011931602,-0.31401062,0.22766113,9.849594
1579011931607,-0.28050232,0.2252655,9.837616
1579011931612,-0.32359314,0.21330261,9.799316000000001
1579011931616,-0.32598877,0.23724365,9.844803
1579011931621,-0.30444336,0.22766113,9.880707000000001
1579011931627,-0.30923462,0.23005676,9.8471985
1579011931632,-0.30444336,0.2204895,9.861557000000001
1579011931638,-0.31163025,0.22286987,9.871139999999999
1579011931642,-0.30444336,0.20851135,9.818466
1579011931648,-0.34513855,0.20851135,9.840012
1579011931652,-0.31880188,0.2252655,9.837616
1579011931657,-0.29006958,0.20611572,9.820862
1579011931663,-0.31880188,0.21569824,9.842407000000001
1579011931668,-0.32119749999999997,0.2204895,9.885498
1579011931673,-0.32359314,0.22286987,9.854385
1579011931677,-0.2996521,0.2204895,9.83522
1579011931682,-0.28050232,0.23963928,9.866348
1579011931688,-0.31401062,0.21569824,9.808883999999999
1579011931693,-0.30204773,0.20372010000000002,9.818466
1579011931698,-0.31640625,0.19892883,9.868744
1579011931702,-0.306839,0.21330261,9.851989999999999
1579011931707,-0.31880188,0.21330261,9.861557000000001
1579011931714,-0.31163025,0.2204895,9.861557000000001
1579011931718,-0.28289795,0.23484802,9.844803
1579011931723,-0.28289795,0.21569824,9.832825
1579011931728,-0.2996521,0.21330261,9.859161
1579011931734,-0.31401062,0.22766113,9.828049
1579011931739,-0.31163025,0.21809387,9.851989999999999
1579011931744,-0.28529358,0.24203491,9.813675
1579011931748,-0.31401062,0.23005676,9.861557000000001
1579011931753,-0.32119749999999997,0.21809387,9.840012
1579011931759,-0.28767395,0.21090698,9.830428999999999
1579011931763,-0.29006958,0.23245239999999998,9.844803
1579011931769,-0.31163025,0.21809387,9.8471985
1579011931773,-0.29725647,0.21330261,9.825652999999999
1579011931779,-0.32359314,0.20132446,9.828049
1579011931784,-0.29006958,0.21330261,9.856766
1579011931789,-0.31163025,0.24681091,9.83522
1579011931794,-0.29725647,0.20851135,9.823257
1579011931800,-0.32119749999999997,0.23484802,9.866348
1579011931805,-0.30923462,0.24681091,9.832825
1579011931810,-0.31640625,0.2204895,9.816071
1579011931815,-0.306839,0.21569824,9.849594
1579011931820,-0.28529358,0.23245239999999998,9.823257
1579011931825,-0.30444336,0.23245239999999998,9.818466
1579011931830,-0.3403473,0.2252655,9.818466
1579011931835,-0.306839,0.22286987,9.83522
1579011931840,-0.28050232,0.23963928,9.832825
1579011931845,-0.31880188,0.21330261,9.8471985
1579011931849,-0.306839,0.2252655,9.825652999999999
1579011931856,-0.306839,0.23724365,9.808883999999999
1579011931861,-0.26133728,0.2204895,9.828049
1579011931866,-0.2996521,0.20132446,9.842407000000001
1579011931871,-0.306839,0.19653320000000002,9.825652999999999
1579011931876,-0.2996521,0.23484802,9.880707000000001
1579011931880,-0.2924652,0.21809387,9.83522
1579011931886,-0.29486084,0.20611572,9.832825
1579011931891,-0.32119749999999997,0.23005676,9.849594
1579011931895,-0.29486084,0.24920654,9.828049
1579011931901,-0.33078003,0.2252655,9.856766
1579011931905,-0.30204773,0.21330261,9.8471985
1579011931910,-0.31401062,0.21330261,9.842407000000001
1579011931915,-0.33317566,0.24203491,9.840012
1579011931921,-0.29006958,0.22286987,9.883102000000001
1579011931925,-0.29725647,0.23245239999999998,9.854385
1579011931932,-0.28767395,0.2252655,9.816071
1579011931937,-0.30923462,0.20611572,9.813675
1579011931941,-0.306839,0.19892883,9.823257
1579011931947,-0.2996521,0.21569824,9.851989999999999
1579011931952,-0.30923462,0.22766113,9.796921000000001
1579011931956,-0.30923462,0.21330261,9.83522
1579011931962,-0.2924652,0.23724365,9.83522
1579011931966,-0.28529358,0.20372010000000002,9.8471985
1579011931971,-0.30204773,0.20611572,9.863953
1579011931977,-0.32119749999999997,0.23005676,9.808883999999999
1579011931982,-0.32119749999999997,0.23724365,9.844803
1579011931987,-0.28529358,0.24203491,9.861557000000001
1579011931992,-0.30204773,0.22286987,9.859161
1579011931997,-0.2924652,0.21090698,9.837616
1579011932003,-0.306839,0.23963928,9.844803
1579011932008,-0.29486084,0.26118470000000005,9.832825
1579011932013,-0.32359314,0.2252655,9.837616
1579011932017,-0.31401062,0.20132446,9.863953
1579011932022,-0.30444336,0.20851135,9.828049
1579011932027,-0.2781067,0.2204895,9.851989999999999
1579011932033,-0.30204773,0.20372010000000002,9.851989999999999
1579011932038,-0.2996521,0.21090698,9.851989999999999
1579011932043,-0.29486084,0.2204895,9.825652999999999
1579011932048,-0.29486084,0.23484802,9.804092
1579011932052,-0.31163025,0.23724365,9.844803
1579011932058,-0.31401062,0.23005676,9.830428999999999
1579011932063,-0.306839,0.23484802,9.804092
1579011932068,-0.33317566,0.21090698,9.832825
1579011932073,-0.30444336,0.20851135,9.844803
1579011932079,-0.2996521,0.23963928,9.856766
1579011932083,-0.31163025,0.2252655,9.878326
1579011932089,-0.31401062,0.22766113,9.818466
1579011932093,-0.27331543,0.24203491,9.844803
1579011932098,-0.28050232,0.22286987,9.859161
1579011932104,-0.306839,0.21090698,9.825652999999999
1579011932108,-0.30444336,0.25639343,9.799316000000001
1579011932113,-0.30923462,0.24681091,9.856766
1579011932119,-0.31880188,0.23245239999999998,9.837616
1579011932124,-0.31401062,0.24443054,9.818466
1579011932129,-0.32598877,0.22766113,9.851989999999999
1579011932134,-0.31640625,0.20132446,9.825652999999999
1579011932139,-0.30923462,0.2252655,9.840012
1579011932144,-0.32598877,0.19892883,9.830428999999999
1579011932149,-0.33317566,0.23963928,9.823257
1579011932154,-0.2996521,0.23245239999999998,9.837616
1579011932160,-0.31880188,0.21330261,9.851989999999999
1579011932165,-0.306839,0.21569824,9.849594
1579011932170,-0.2924652,0.23963928,9.840012
1579011932174,-0.306839,0.24920654,9.859161
1579011932180,-0.28289795,0.24203491,9.866348
1579011932185,-0.30444336,0.21569824,9.849594
1579011932189,-0.30923462,0.19892883,9.823257
1579011932195,-0.30444336,0.20611572,9.840012
1579011932199,-0.31163025,0.2252655,9.832825
1579011932204,-0.28767395,0.23005676,9.825652999999999
1579011932210,-0.27331543,0.20611572,9.859161
1579011932215,-0.30444336,0.20851135,9.837616
1579011932220,-0.30923462,0.2252655,9.816071
1579011932226,-0.2996521,0.23245239999999998,9.828049
1579011932230,-0.31401062,0.22286987,9.849594
1579011932236,-0.30923462,0.2204895,9.83522
1579011932241,-0.28050232,0.2204895,9.811278999999999
1579011932245,-0.29486084,0.22766113,9.842407000000001
1579011932250,-0.2996521,0.23484802,9.844803
1579011932256,-0.2996521,0.21569824,9.8471985
1579011932261,-0.32119749999999997,0.2252655,9.842407000000001
1579011932266,-0.30923462,0.25639343,9.820862
1579011932270,-0.31880188,0.23963928,9.823257
1579011932275,-0.306839,0.22766113,9.837616
1579011932281,-0.30923462,0.23005676,9.825652999999999
1579011932285,-0.30923462,0.24203491,9.832825
1579011932292,-0.306839,0.2252655,9.832825
1579011932296,-0.32359314,0.23005676,9.844803
1579011932302,-0.2996521,0.21569824,9.851989999999999
1579011932307,-0.30444336,0.25160217,9.830428999999999
1579011932312,-0.2996521,0.21569824,9.830428999999999
1579011932316,-0.2996521,0.22766113,9.818466
1579011932321,-0.30444336,0.21809387,9.842407000000001
1579011932327,-0.28289795,0.20851135,9.842407000000001
1579011932332,-0.31640625,0.22766113,9.856766
1579011932336,-0.29725647,0.23245239999999998,9.837616
1579011932342,-0.29725647,0.2539978,9.856766
1579011932347,-0.2996521,0.2252655,9.8471985
1579011932351,-0.30444336,0.23005676,9.859161
1579011932356,-0.31880188,0.25160217,9.837616
1579011932363,-0.30444336,0.23484802,9.828049
1579011932368,-0.29486084,0.19175720000000002,9.806488
1579011932373,-0.2996521,0.19415283,9.851989999999999
1579011932378,-0.30444336,0.21330261,9.837616
1579011932383,-0.30923462,0.23245239999999998,9.818466
1579011932388,-0.32359314,0.19175720000000002,9.813675
1579011932392,-0.31880188,0.21569824,9.832825
1579011932398,-0.28767395,0.21809387,9.863953
1579011932402,-0.30444336,0.24681091,9.873535
1579011932407,-0.28767395,0.23484802,9.868744
1579011932413,-0.28767395,0.22286987,9.83522
1579011932418,-0.28529358,0.21090698,9.825652999999999
1579011932422,-0.29486084,0.21569824,9.837616
1579011932427,-0.29006958,0.22286987,9.837616
1579011932433,-0.29725647,0.19415283,9.854385
1579011932439,-0.30204773,0.19653320000000002,9.856766
1579011932444,-0.2996521,0.21090698,9.840012
1579011932449,-0.29725647,0.21090698,9.856766
1579011932454,-0.29486084,0.23005676,9.840012
1579011932458,-0.29006958,0.23484802,9.811278999999999
1579011932464,-0.2996521,0.20611572,9.799316000000001
1579011932469,-0.29486084,0.21809387,9.8471985
1579011932474,-0.32119749999999997,0.23484802,9.844803
1579011932478,-0.31640625,0.23005676,9.854385
1579011932484,-0.33078003,0.21330261,9.844803
1579011932489,-0.29486084,0.2252655,9.837616
1579011932494,-0.30204773,0.23005676,9.856766
1579011932499,-0.30204773,0.23245239999999998,9.842407000000001
1579011932504,-0.2924652,0.21809387,9.856766
1579011932510,-0.26852417,0.24443054,9.856766
1579011932515,-0.28767395,0.23005676,9.820862
1579011932520,-0.28529358,0.2204895,9.828049
1579011932524,-0.2996521,0.19415283,9.818466
1579011932530,-0.3283844,0.19415283,9.863953
1579011932535,-0.3283844,0.18457031,9.844803
1579011932540,-0.31880188,0.2204895,9.837616
1579011932544,-0.32598877,0.24920654,9.823257
1579011932550,-0.32598877,0.23484802,9.849594
1579011932554,-0.30204773,0.24443054,9.842407000000001
1579011932560,-0.27571106,0.23245239999999998,9.899872
1579011932565,-0.2924652,0.22766113,9.8471985
1579011932570,-0.306839,0.2252655,9.804092
1579011932574,-0.29006958,0.23245239999999998,9.885498
1579011932579,-0.28767395,0.20611572,9.861557000000001
1579011932586,-0.3283844,0.21569824,9.813675
1579011932590,-0.30444336,0.19892883,9.830428999999999
1579011932595,-0.30204773,0.24203491,9.808883999999999
1579011932601,-0.30923462,0.22286987,9.825652999999999
1579011932606,-0.32598877,0.23005676,9.8471985
1579011932611,-0.31880188,0.21090698,9.825652999999999
1579011932616,-0.2996521,0.19175720000000002,9.842407000000001
1579011932620,-0.31163025,0.22766113,9.861557000000001
1579011932625,-0.31163025,0.21330261,9.859161
1579011932630,-0.31401062,0.21569824,9.823257
1579011932636,-0.31163025,0.24203491,9.854385
1579011932641,-0.30923462,0.23963928,9.868744
1579011932646,-0.2709198,0.23005676,9.808883999999999
1579011932651,-0.2996521,0.23963928,9.837616
1579011932657,-0.30923462,0.19892883,9.844803
1579011932662,-0.30204773,0.22286987,9.818466
1579011932667,-0.28050232,0.21569824,9.844803
1579011932671,-0.29725647,0.20611572,9.859161
1579011932676,-0.30923462,0.20132446,9.818466
1579011932681,-0.306839,0.24920654,9.816071
1579011932687,-0.31640625,0.23005676,9.885498
1579011932692,-0.28289795,0.23245239999999998,9.828049
1579011932696,-0.28767395,0.21090698,9.806488
1579011932702,-0.31880188,0.23245239999999998,9.859161
1579011932707,-0.31880188,0.25639343,9.83522
1579011932712,-0.32598877,0.24203491,9.813675
1579011932717,-0.30444336,0.24681091,9.856766
1579011932722,-0.30444336,0.24443054,9.856766
1579011932728,-0.31640625,0.2252655,9.851989999999999
1579011932733,-0.30204773,0.21090698,9.830428999999999
1579011932738,-0.29725647,0.22766113,9.863953
1579011932743,-0.29486084,0.25160217,9.861557000000001
1579011932747,-0.28289795,0.22286987,9.856766
1579011932753,-0.29486084,0.2252655,9.825652999999999
1579011932758,-0.30923462,0.22286987,9.851989999999999
1579011932763,-0.30444336,0.20132446,9.866348
1579011932768,-0.29725647,0.19653320000000002,9.842407000000001
1579011932772,-0.31640625,0.2252655,9.808883999999999
1579011932778,-0.31640625,0.2252655,9.811278999999999
1579011932783,-0.30444336,0.23484802,9.840012
1579011932787,-0.31163025,0.23005676,9.818466
1579011932793,-0.30444336,0.22286987,9.820862
1579011932797,-0.2996521,0.23245239999999998,9.861557000000001
1579011932804,-0.30444336,0.21569824,9.875931
1579011932808,-0.32598877,0.23484802,9.811278999999999
1579011932814,-0.34274292,0.24681091,9.813675
1579011932819,-0.33078003,0.22286987,9.880707000000001
1579011932824,-0.27571106,0.21809387,9.844803
1579011932829,-0.31880188,0.23245239999999998,9.816071
1579011932834,-0.30923462,0.23963928,9.871139999999999
1579011932838,-0.306839,0.22766113,9.820862
1579011932843,-0.3283844,0.21090698,9.832825
1579011932848,-0.29725647,0.23005676,9.842407000000001
1579011932853,-0.30444336,0.23484802,9.816071
1579011932859,-0.31401062,0.22766113,9.825652999999999
1579011932863,-0.31163025,0.21569824,9.823257
1579011932869,-0.32359314,0.24203491,9.820862
1579011932875,-0.2996521,0.23484802,9.840012
1579011932880,-0.29006958,0.24203491,9.854385
1579011932885,-0.29006958,0.23245239999999998,9.823257
1579011932889,-0.33317566,0.23484802,9.840012
1579011932895,-0.32119749999999997,0.23005676,9.820862
1579011932900,-0.31401062,0.2252655,9.816071
1579011932904,-0.306839,0.2204895,9.873535
1579011932910,-0.28289795,0.17977905,9.854385
1579011932914,-0.31163025,0.21330261,9.851989999999999
1579011932919,-0.306839,0.25639343,9.859161
1579011932924,-0.30204773,0.23484802,9.818466
1579011932930,-0.31163025,0.21809387,9.820862
1579011932935,-0.3283844,0.24203491,9.875931
1579011932939,-0.31880188,0.23005676,9.837616
1579011932945,-0.29486084,0.23963928,9.842407000000001
1579011932951,-0.30923462,0.24443054,9.866348
1579011932956,-0.27331543,0.2252655,9.83522
1579011932960,-0.30444336,0.21090698,9.856766
1579011932966,-0.31640625,0.20611572,9.859161
1579011932970,-0.29486084,0.22766113,9.806488
1579011932976,-0.30444336,0.21569824,9.818466
1579011932980,-0.30923462,0.23963928,9.856766
1579011932986,-0.29725647,0.24443054,9.832825
1579011932991,-0.2924652,0.22766113,9.844803
1579011932996,-0.33078003,0.20132446,9.883102000000001
1579011933001,-0.32598877,0.20372010000000002,9.804092
1579011933006,-0.31880188,0.22286987,9.8471985
1579011933010,-0.306839,0.23963928,9.863953
1579011933016,-0.30204773,0.2539978,9.8471985
1579011933022,-0.29006958,0.20372010000000002,9.808883999999999
1579011933027,-0.30444336,0.22286987,9.806488
1579011933031,-0.28529358,0.20132446,9.804092
1579011933036,-0.27331543,0.23484802,9.859161
1579011933041,-0.29006958,0.2204895,9.859161
1579011933046,-0.33317566,0.21330261,9.840012
1579011933051,-0.31163025,0.2204895,9.854385
1579011933057,-0.2781067,0.24681091,9.844803
1579011933062,-0.2996521,0.24203491,9.866348
1579011933067,-0.306839,0.21569824,9.840012
1579011933072,-0.28767395,0.20851135,9.789734
1579011933077,-0.29725647,0.21569824,9.818466
1579011933081,-0.30923462,0.23005676,9.804092
1579011933087,-0.31640625,0.23724365,9.840012
1579011933093,-0.33557129999999996,0.22286987,9.859161
1579011933098,-0.306839,0.21090698,9.820862
1579011933103,-0.28289795,0.21569824,9.830428999999999
1579011933108,-0.31640625,0.25160217,9.868744
1579011933113,-0.29486084,0.23005676,9.840012
1579011933117,-0.29486084,0.2252655,9.856766
1579011933123,-0.30923462,0.23005676,9.883102000000001
1579011933127,-0.30444336,0.24203491,9.854385
1579011933133,-0.31880188,0.2204895,9.837616
1579011933138,-0.33078003,0.20611572,9.866348
1579011933143,-0.30204773,0.20132446,9.851989999999999
1579011933148,-0.29725647,0.2252655,9.851989999999999
1579011933152,-0.30204773,0.23245239999999998,9.873535
1579011933158,-0.31880188,0.21569824,9.830428999999999
1579011933163,-0.31401062,0.2204895,9.854385
1579011933168,-0.27571106,0.2252655,9.825652999999999
1579011933174,-0.2996521,0.21330261,9.832825
1579011933179,-0.31880188,0.21569824,9.868744
1579011933184,-0.28767395,0.21330261,9.861557000000001
1579011933188,-0.31640625,0.24681091,9.837616
1579011933193,-0.29725647,0.23245239999999998,9.828049
1579011933198,-0.2996521,0.21569824,9.873535
1579011933203,-0.31163025,0.23484802,9.861557000000001
1579011933208,-0.29006958,0.21809387,9.871139999999999
1579011933214,-0.2924652,0.23724365,9.868744
1579011933219,-0.2924652,0.2204895,9.859161
1579011933223,-0.30444336,0.27554320000000004,9.83522
1579011933229,-0.33796692,0.19892883,9.854385
1579011933234,-0.30444336,0.20611572,9.816071
1579011933240,-0.28050232,0.21809387,9.828049
1579011933245,-0.31163025,0.23484802,9.811278999999999
1579011933250,-0.31880188,0.19653320000000002,9.796921000000001
1579011933254,-0.31401062,0.2204895,9.8471985
1579011933259,-0.31401062,0.20851135,9.861557000000001
1579011933265,-0.30444336,0.2204895,9.880707000000001
1579011933270,-0.31163025,0.24681091,9.840012
1579011933274,-0.30923462,0.23724365,9.859161
1579011933280,-0.29725647,0.22286987,9.840012
1579011933285,-0.31401062,0.21809387,9.854385
1579011933290,-0.29725647,0.21569824,9.851989999999999
1579011933295,-0.28289795,0.22286987,9.83522
1579011933300,-0.30923462,0.23724365,9.842407000000001
1579011933305,-0.31640625,0.2252655,9.861557000000001
1579011933311,-0.2996521,0.22766113,9.818466
1579011933316,-0.30204773,0.24203491,9.820862
1579011933320,-0.33557129999999996,0.22766113,9.832825
1579011933326,-0.33317566,0.22286987,9.820862
1579011933331,-0.32359314,0.20372010000000002,9.830428999999999
1579011933335,-0.33317566,0.2204895,9.844803
1579011933341,-0.32359314,0.22286987,9.842407000000001
1579011933346,-0.2996521,0.22766113,9.840012
1579011933350,-0.306839,0.21330261,9.861557000000001
1579011933356,-0.28289795,0.21569824,9.854385
1579011933360,-0.27571106,0.23724365,9.863953
1579011933365,-0.2637329,0.22766113,9.849594
1579011933370,-0.27571106,0.23484802,9.832825
1579011933376,-0.26852417,0.21569824,9.8471985
1579011933382,-0.27571106,0.21569824,9.837616
1579011933387,-0.31640625,0.20372010000000002,9.844803
1579011933392,-0.31163025,0.21330261,9.837616
1579011933397,-0.30204773,0.24443054,9.871139999999999
1579011933402,-0.30923462,0.22766113,9.842407000000001
1579011933407,-0.29006958,0.21330261,9.825652999999999
1579011933411,-0.2996521,0.22766113,9.820862
1579011933417,-0.2781067,0.2204895,9.828049
1579011933422,-0.29006958,0.20611572,9.859161
1579011933426,-0.28767395,0.21330261,9.818466
1579011933432,-0.2996521,0.23963928,9.842407000000001
1579011933436,-0.30444336,0.21330261,9.863953
1579011933441,-0.32598877,0.23963928,9.871139999999999
1579011933446,-0.31401062,0.24203491,9.842407000000001
1579011933451,-0.30444336,0.22766113,9.842407000000001
1579011933458,-0.32119749999999997,0.23005676,9.866348
1579011933463,-0.2996521,0.26837158,9.854385
1579011933467,-0.27571106,0.21569824,9.851989999999999
1579011933472,-0.3283844,0.19653320000000002,9.863953
1579011933477,-0.32119749999999997,0.23245239999999998,9.854385
1579011933483,-0.32359314,0.23963928,9.83522
1579011933488,-0.31163025,0.22286987,9.794525
1579011933492,-0.30444336,0.24443054,9.844803
1579011933497,-0.2996521,0.23963928,9.8471985
1579011933503,-0.31640625,0.21330261,9.837616
1579011933507,-0.2924652,0.21330261,9.837616
1579011933513,-0.31163025,0.20372010000000002,9.837616
1579011933518,-0.29725647,0.20132446,9.866348
1579011933523,-0.28529358,0.23245239999999998,9.856766
1579011933529,-0.29006958,0.21330261,9.8471985
1579011933534,-0.27571106,0.20372010000000002,9.816071
1579011933538,-0.30444336,0.2204895,9.825652999999999
1579011933544,-0.29486084,0.22286987,9.832825
1579011933549,-0.32119749999999997,0.2204895,9.856766
1579011933554,-0.32119749999999997,0.24443054,9.820862
1579011933559,-0.31163025,0.22766113,9.856766
1579011933563,-0.29486084,0.21330261,9.844803
1579011933569,-0.31401062,0.25639343,9.828049
1579011933573,-0.31640625,0.24681091,9.859161
1579011933578,-0.28767395,0.19415283,9.840012
1579011933584,-0.29725647,0.22766113,9.816071
1579011933588,-0.29725647,0.21569824,9.830428999999999
1579011933594,-0.31401062,0.23005676,9.885498
1579011933600,-0.29725647,0.2204895,9.837616
1579011933605,-0.31163025,0.21330261,9.818466
1579011933610,-0.31401062,0.23005676,9.840012
1579011933615,-0.30444336,0.22286987,9.866348
1579011933620,-0.2996521,0.2204895,9.842407000000001
1579011933625,-0.2996521,0.23005676,9.849594
1579011933630,-0.27571106,0.21809387,9.873535
1579011933635,-0.28050232,0.23005676,9.880707000000001
1579011933640,-0.31640625,0.24443054,9.868744
1579011933644,-0.306839,0.23005676,9.866348
1579011933649,-0.2996521,0.24920654,9.830428999999999
1579011933654,-0.31640625,0.22766113,9.828049
1579011933659,-0.2996521,0.23484802,9.840012
1579011933664,-0.31640625,0.22286987,9.837616
1579011933669,-0.32359314,0.20611572,9.818466
1579011933676,-0.31163025,0.2252655,9.854385
1579011933680,-0.33317566,0.22286987,9.842407000000001
1579011933686,-0.3403473,0.2204895,9.83522
1579011933691,-0.31163025,0.21330261,9.844803
1579011933696,-0.31163025,0.24443054,9.861557000000001
1579011933700,-0.2924652,0.25639343,9.8471985
1579011933706,-0.29486084,0.21090698,9.840012
1579011933711,-0.32119749999999997,0.20132446,9.837616
1579011933716,-0.30204773,0.22766113,9.804092
1579011933720,-0.28050232,0.23484802,9.856766
1579011933726,-0.28767395,0.2252655,9.837616
1579011933731,-0.31880188,0.2252655,9.83522
1579011933736,-0.33078003,0.20132446,9.823257
1579011933741,-0.29725647,0.20851135,9.830428999999999
1579011933747,-0.29486084,0.23005676,9.83522
1579011933752,-0.30204773,0.21090698,9.8471985
1579011933757,-0.29006958,0.23724365,9.832825
1579011933762,-0.28529358,0.2204895,9.840012
1579011933767,-0.31401062,0.24203491,9.844803
1579011933772,-0.30204773,0.24681091,9.875931
1579011933777,-0.30923462,0.21809387,9.880707000000001
1579011933782,-0.29486084,0.23005676,9.83522
1579011933787,-0.30923462,0.24681091,9.8471985
1579011933791,-0.29725647,0.2204895,9.868744
1579011933797,-0.29006958,0.21809387,9.849594
1579011933801,-0.29006958,0.21330261,9.825652999999999
1579011933807,-0.30444336,0.23245239999999998,9.861557000000001
1579011933812,-0.31640625,0.22286987,9.859161
1579011933818,-0.32598877,0.24920654,9.837616
1579011933822,-0.28529358,0.2252655,9.799316000000001
1579011933828,-0.28767395,0.21809387,9.861557000000001
1579011933833,-0.30204773,0.21569824,9.828049
1579011933838,-0.30923462,0.2252655,9.818466
1579011933842,-0.29006958,0.22286987,9.804092
1579011933848,-0.30444336,0.22766113,9.830428999999999
1579011933852,-0.28767395,0.22766113,9.861557000000001
1579011933857,-0.2996521,0.23005676,9.861557000000001
1579011933863,-0.2996521,0.26358032,9.828049
1579011933868,-0.31401062,0.20611572,9.861557000000001
1579011933873,-0.29725647,0.23724365,9.832825
1579011933878,-0.29725647,0.22286987,9.854385
1579011933883,-0.29006958,0.22766113,9.820862
1579011933888,-0.28767395,0.23245239999999998,9.861557000000001
1579011933893,-0.2924652,0.24203491,9.8471985
1579011933899,-0.2924652,0.23963928,9.7921295
1579011933903,-0.30204773,0.2252655,9.851989999999999
1579011933909,-0.29725647,0.20611572,9.825652999999999
1579011933914,-0.30444336,0.22286987,9.844803
1579011933919,-0.33078003,0.23724365,9.854385
1579011933924,-0.30444336,0.22766113,9.854385
1579011933929,-0.26852417,0.23245239999999998,9.868744
1579011933933,-0.29725647,0.24920654,9.823257
1579011933939,-0.29725647,0.23005676,9.863953
1579011933944,-0.30923462,0.23484802,9.818466
1579011933948,-0.31880188,0.22286987,9.83522
1579011933954,-0.28289795,0.21809387,9.863953
1579011933959,-0.32598877,0.23005676,9.863953
1579011933965,-0.32119749999999997,0.25639343,9.83522
1579011933970,-0.32359314,0.21569824,9.816071
1579011933975,-0.31640625,0.23005676,9.808883999999999
1579011933979,-0.2781067,0.23963928,9.830428999999999
1579011933985,-0.2924652,0.23245239999999998,9.832825
1579011933989,-0.31163025,0.21569824,9.818466
1579011933994,-0.28529358,0.22286987,9.830428999999999
1579011934000,-0.29006958,0.22286987,9.830428999999999
1579011934005,-0.30204773,0.21090698,9.842407000000001
1579011934009,-0.32119749999999997,0.21330261,9.887894000000001
1579011934015,-0.29006958,0.2252655,9.8471985
1579011934020,-0.2996521,0.24443054,9.842407000000001
1579011934025,-0.29725647,0.24681091,9.897476
1579011934029,-0.2996521,0.22286987,9.854385
1579011934036,-0.29725647,0.25160217,9.828049
1579011934041,-0.2996521,0.24681091,9.832825
1579011934045,-0.306839,0.23963928,9.883102000000001
1579011934051,-0.306839,0.23005676,9.873535
1579011934056,-0.29486084,0.19653320000000002,9.830428999999999
1579011934061,-0.32598877,0.22286987,9.851989999999999
1579011934066,-0.31401062,0.21569824,9.832825
1579011934071,-0.29725647,0.24203491,9.861557000000001
1579011934076,-0.29486084,0.21809387,9.823257
1579011934081,-0.29006958,0.2204895,9.861557000000001
1579011934086,-0.31640625,0.23005676,9.825652999999999
1579011934091,-0.32119749999999997,0.23963928,9.832825
1579011934096,-0.30204773,0.2252655,9.856766
1579011934100,-0.2996521,0.21330261,9.861557000000001
1579011934106,-0.29725647,0.23484802,9.866348
1579011934112,-0.30923462,0.2252655,9.813675
1579011934117,-0.30204773,0.21330261,9.83522
1579011934121,-0.2996521,0.22286987,9.830428999999999
1579011934127,-0.29006958,0.22766113,9.828049
1579011934132,-0.306839,0.19415283,9.842407000000001
1579011934137,-0.31163025,0.23005676,9.840012
1579011934142,-0.31401062,0.21569824,9.816071
1579011934147,-0.306839,0.22766113,9.799316000000001
1579011934152,-0.32359314,0.24203491,9.878326
1579011934156,-0.32119749999999997,0.24681091,9.854385
1579011934161,-0.31640625,0.22766113,9.830428999999999
1579011934167,-0.2996521,0.20851135,9.856766
