Timestamp,gyrX,gyrY,gyrZ
1579011921841,-0.0010681152,-0.0010681152,-0.003189087
1579011921846,-0.003189087,-0.0010681152,-0.0053253174
1579011921850,-0.0053253174,-0.0010681152,-0.004257202
1579011921855,-0.003189087,-0.0021362305,-0.0063934326
1579011921861,-0.003189087,-0.0010681152,-0.0053253174
1579011921866,-0.0021362305,-0.0021362305,-0.0053253174
1579011921871,-0.003189087,-0.0021362305,-0.003189087
1579011921876,-0.0021362305,-0.0021362305,-0.004257202
1579011921881,-0.0021362305,-0.0021362305,-0.004257202
1579011921886,-0.0021362305,-0.004257202,-0.004257202
1579011921890,-0.0021362305,-0.004257202,-0.004257202
1579011921896,-0.003189087,0.0,-0.004257202
1579011921900,-0.0010681152,0.0,-0.004257202
1579011921907,-0.004257202,-0.0010681152,-0.0053253174
1579011921912,-0.003189087,0.0,-0.003189087
1579011921916,-0.0010681152,-0.0021362305,-0.004257202
1579011921922,-0.0021362305,-0.0021362305,-0.003189087
1579011921927,-0.004257202,-0.0021362305,-0.003189087
1579011921932,-0.003189087,-0.0021362305,-0.0053253174
1579011921937,-0.003189087,-0.0021362305,-0.0053253174
1579011921941,-0.0021362305,-0.003189087,-0.0053253174
1579011921947,-0.0021362305,-0.0021362305,-0.004257202
1579011921951,-0.003189087,0.0,-0.004257202
1579011921957,-0.0010681152,-0.0010681152,-0.0053253174
1579011921961,-0.0010681152,-0.0021362305,-0.007461548
1579011921967,-0.0010681152,-0.0010681152,-0.004257202
1579011921971,-0.0010681152,-0.0010681152,-0.0053253174
1579011921978,-0.0010681152,-0.0021362305,-0.0053253174
1579011921983,-0.0010681152,-0.003189087,-0.0053253174
1579011921988,0.0,-0.004257202,-0.004257202
1579011921993,-0.0021362305,-0.003189087,-0.004257202
1579011921998,-0.003189087,-0.0021362305,-0.0053253174
1579011922002,-0.004257202,-0.0021362305,-0.0053253174
1579011922008,-0.0021362305,0.0,-0.004257202
1579011922012,-0.0021362305,-0.003189087,-0.004257202
1579011922018,-0.003189087,-0.0021362305,-0.004257202
1579011922023,-0.004257202,-0.0010681152,-0.004257202
1579011922028,-0.0021362305,-0.0010681152,-0.007461548
1579011922033,-0.003189087,-0.0021362305,-0.0053253174
1579011922038,-0.003189087,-0.003189087,-0.004257202
1579011922043,-0.003189087,-0.0021362305,-0.004257202
1579011922049,-0.004257202,-0.003189087,-0.0063934326
1579011922053,-0.004257202,-0.0021362305,-0.004257202
1579011922059,-0.0021362305,-0.003189087,-0.003189087
1579011922063,-0.003189087,-0.0010681152,-0.0021362305
1579011922069,-0.003189087,0.0,-0.003189087
1579011922074,-0.0021362305,-0.0021362305,-0.0053253174
1579011922079,-0.0021362305,-0.0021362305,-0.004257202
1579011922084,-0.0021362305,-0.0010681152,-0.004257202
1579011922088,-0.0010681152,-0.0021362305,-0.003189087
1579011922094,-0.003189087,-0.003189087,-0.004257202
1579011922099,-0.003189087,-0.0010681152,-0.004257202
1579011922104,-0.004257202,0.0,-0.004257202
1579011922109,-0.0021362305,-0.0021362305,-0.0053253174
1579011922113,-0.003189087,-0.003189087,-0.004257202
1579011922119,-0.0053253174,-0.0021362305,-0.0053253174
1579011922124,-0.004257202,-0.0021362305,-0.0053253174
1579011922130,-0.004257202,-0.0021362305,-0.003189087
1579011922135,-0.0021362305,-0.0021362305,-0.0021362305
1579011922140,-0.003189087,-0.0021362305,-0.0021362305
1579011922145,-0.0021362305,-0.0021362305,-0.004257202
1579011922150,-0.0010681152,-0.003189087,-0.0063934326
1579011922154,-0.003189087,-0.0021362305,-0.0053253174
1579011922160,-0.003189087,-0.0010681152,-0.004257202
1579011922164,-0.003189087,-0.0021362305,-0.004257202
1579011922169,-0.003189087,-0.0021362305,-0.0053253174
1579011922175,-0.0010681152,-0.0010681152,-0.004257202
1579011922180,-0.003189087,-0.0021362305,-0.003189087
1579011922185,-0.0021362305,-0.0021362305,-0.004257202
1579011922190,-0.0021362305,-0.0021362305,-0.004257202
1579011922195,-0.004257202,-0.0010681152,-0.0063934326
1579011922200,-0.004257202,-0.0021362305,-0.004257202
1579011922206,-0.004257202,-0.0021362305,-0.0053253174
1579011922210,-0.0021362305,-0.0010681152,-0.003189087
1579011922216,-0.003189087,-0.003189087,-0.003189087
1579011922221,-0.003189087,-0.0021362305,-0.0053253174
1579011922225,-0.003189087,-0.0010681152,-0.003189087
1579011922231,-0.0021362305,-0.0010681152,-0.0053253174
1579011922235,0.0,-0.0021362305,-0.004257202
1579011922241,-0.0021362305,-0.003189087,-0.0053253174
1579011922245,-0.0010681152,-0.0021362305,-0.004257202
1579011922250,-0.003189087,-0.0021362305,-0.004257202
1579011922256,-0.0021362305,-0.0021362305,-0.004257202
1579011922261,-0.0021362305,-0.0021362305,-0.003189087
1579011922267,-0.0021362305,-0.0010681152,-0.003189087
1579011922272,0.0,-0.003189087,-0.004257202
1579011922277,-0.0021362305,-0.0010681152,-0.004257202
1579011922281,-0.0010681152,-0.0010681152,-0.0063934326
1579011922287,0.0,-0.0021362305,-0.0053253174
1579011922292,0.0,-0.0021362305,-0.0053253174
1579011922297,0.0,-0.0010681152,-0.004257202
1579011922302,-0.0010681152,-0.0021362305,-0.004257202
1579011922307,0.0,-0.0021362305,-0.004257202
1579011922311,0.0,-0.0021362305,-0.0053253174
1579011922317,0.0,0.0,-0.004257202
1579011922322,0.0021362305,-0.0021362305,-0.0021362305
1579011922326,-0.0010681152,-0.0021362305,-0.004257202
1579011922332,-0.004257202,-0.0021362305,-0.004257202
1579011922337,-0.0021362305,-0.0021362305,-0.003189087
1579011922343,-0.003189087,-0.003189087,-0.0053253174
1579011922347,-0.004257202,-0.0010681152,-0.0053253174
1579011922353,-0.003189087,-0.0010681152,-0.004257202
1579011922358,-0.0010681152,0.0,-0.007461548
1579011922363,-0.0010681152,-0.0021362305,-0.01171875
1579011922367,-0.003189087,-0.0021362305,-0.01171875
1579011922373,-0.0021362305,-0.0010681152,-0.01171875
1579011922378,0.0,0.0,-0.01171875
1579011922383,0.0,0.0,-0.008529663
1579011922388,0.0,0.0,-0.008529663
1579011922393,-0.004257202,0.0,-0.007461548
1579011922398,-0.0053253174,-0.0010681152,-0.008529663
1579011922402,-0.0053253174,-0.0010681152,-0.007461548
1579011922407,-0.0021362305,0.0021362305,-0.0063934326
1579011922414,-0.0021362305,0.0,-0.007461548
1579011922419,-0.0021362305,-0.0010681152,-0.008529663
1579011922424,-0.0021362305,0.0,-0.0053253174
1579011922428,-0.003189087,0.0,-0.007461548
1579011922433,-0.0021362305,-0.0021362305,-0.0063934326
1579011922438,0.0010681152,-0.0010681152,-0.004257202
1579011922444,0.0,0.0,-0.0053253174
1579011922449,-0.003189087,-0.0021362305,-0.0053253174
1579011922453,-0.0010681152,-0.0021362305,-0.0053253174
1579011922458,-0.003189087,-0.0010681152,-0.0053253174
1579011922464,-0.004257202,-0.0021362305,-0.004257202
1579011922469,-0.0021362305,-0.0021362305,-0.003189087
1579011922473,-0.003189087,-0.0010681152,-0.0021362305
1579011922479,-0.003189087,-0.0010681152,-0.003189087
1579011922485,-0.003189087,-0.0010681152,-0.003189087
1579011922490,-0.0021362305,-0.0010681152,-0.004257202
1579011922494,-0.0010681152,-0.0010681152,-0.0053253174
1579011922499,-0.0021362305,0.0,-0.004257202
1579011922505,-0.0021362305,0.0,-0.0063934326
1579011922510,0.0010681152,-0.0021362305,-0.004257202
1579011922515,-0.0010681152,-0.0010681152,-0.004257202
1579011922520,-0.0010681152,-0.0021362305,-0.003189087
1579011922525,-0.003189087,0.0,-0.004257202
1579011922529,-0.003189087,-0.0021362305,-0.004257202
1579011922535,-0.0010681152,-0.0021362305,-0.003189087
1579011922539,-0.0010681152,0.0,-0.004257202
1579011922545,-0.004257202,-0.0010681152,-0.004257202
1579011922550,-0.0021362305,-0.003189087,-0.004257202
1579011922555,-0.0021362305,-0.0021362305,-0.0063934326
1579011922561,-0.0053253174,0.0010681152,-0.004257202
1579011922566,-0.004257202,0.0,-0.003189087
1579011922571,-0.004257202,-0.0021362305,-0.004257202
1579011922576,-0.004257202,-0.0010681152,-0.003189087
1579011922581,-0.0053253174,0.0,-0.003189087
1579011922585,-0.003189087,0.0,-0.004257202
1579011922591,-0.0021362305,-0.0010681152,-0.0053253174
1579011922595,-0.003189087,-0.0010681152,-0.004257202
1579011922601,-0.004257202,-0.0010681152,-0.0063934326
1579011922606,-0.0021362305,-0.0021362305,-0.0063934326
1579011922611,-0.0053253174,-0.0021362305,-0.0053253174
1579011922616,-0.003189087,-0.0021362305,-0.003189087
1579011922621,-0.0021362305,0.0,-0.004257202
1579011922626,-0.0021362305,-0.0010681152,-0.0053253174
1579011922631,-0.0010681152,0.0,-0.004257202
1579011922637,-0.0021362305,0.0,-0.004257202
1579011922642,-0.003189087,-0.0010681152,-0.003189087
1579011922646,-0.004257202,-0.003189087,-0.003189087
1579011922651,-0.0010681152,-0.0021362305,-0.0053253174
1579011922656,-0.0021362305,0.0,-0.0063934326
1579011922661,-0.004257202,-0.0021362305,-0.0053253174
1579011922667,-0.0021362305,-0.0021362305,-0.003189087
1579011922672,-0.0021362305,0.0,-0.004257202
1579011922677,-0.0021362305,0.0,-0.003189087
1579011922682,0.0010681152,-0.003189087,-0.003189087
1579011922686,-0.0021362305,0.0,-0.003189087
1579011922692,-0.004257202,0.0,-0.003189087
1579011922696,-0.0021362305,-0.0053253174,-0.004257202
1579011922703,-0.0010681152,-0.003189087,-0.004257202
1579011922707,-0.0010681152,0.0,-0.0053253174
1579011922713,-0.0021362305,-0.0010681152,-0.004257202
1579011922717,-0.0021362305,-0.003189087,-0.0053253174
1579011922723,-0.003189087,-0.0053253174,-0.0063934326
1579011922728,-0.0053253174,-0.0021362305,-0.004257202
1579011922733,-0.004257202,0.0,-0.004257202
1579011922738,-0.003189087,-0.0021362305,-0.0053253174
1579011922742,-0.0021362305,-0.0010681152,-0.0053253174
1579011922748,-0.004257202,-0.0010681152,-0.0053253174
1579011922753,-0.004257202,-0.003189087,-0.003189087
1579011922757,-0.003189087,-0.0010681152,-0.004257202
1579011922763,-0.003189087,-0.0010681152,-0.0053253174
1579011922767,-0.0021362305,0.0,-0.0053253174
1579011922773,-0.0021362305,-0.0010681152,-0.004257202
1579011922778,-0.0021362305,-0.0010681152,-0.003189087
1579011922783,-0.0021362305,-0.0010681152,-0.0021362305
1579011922789,-0.003189087,0.0,-0.004257202
1579011922794,-0.003189087,-0.0010681152,-0.0053253174
1579011922798,-0.0021362305,-0.0010681152,-0.004257202
1579011922804,-0.0010681152,-0.003189087,-0.003189087
1579011922809,-0.0021362305,-0.003189087,-0.003189087
1579011922814,-0.0063934326,-0.0010681152,-0.004257202
1579011922819,-0.004257202,0.0,-0.004257202
1579011922824,-0.0021362305,-0.0010681152,-0.004257202
1579011922829,-0.0021362305,-0.0010681152,-0.0021362305
1579011922833,-0.003189087,-0.0021362305,-0.004257202
1579011922838,-0.004257202,-0.003189087,-0.0053253174
1579011922843,-0.004257202,-0.003189087,-0.003189087
1579011922850,-0.004257202,0.0,-0.004257202
1579011922855,-0.004257202,0.0,-0.0053253174
1579011922860,-0.003189087,-0.0010681152,-0.003189087
1579011922865,-0.0053253174,-0.0010681152,-0.003189087
1579011922870,-0.004257202,-0.0021362305,-0.004257202
1579011922875,-0.003189087,-0.0021362305,-0.0053253174
1579011922879,-0.0053253174,-0.0010681152,-0.004257202
1579011922885,-0.004257202,-0.003189087,-0.004257202
1579011922889,-0.0053253174,-0.0021362305,-0.0021362305
1579011922895,-0.003189087,-0.0021362305,-0.003189087
1579011922899,-0.0053253174,-0.0010681152,-0.0021362305
1579011922904,-0.0053253174,0.0,-0.004257202
1579011922910,-0.0053253174,-0.0021362305,-0.0053253174
1579011922914,-0.004257202,-0.003189087,-0.003189087
1579011922920,-0.004257202,-0.0021362305,-0.004257202
1579011922925,-0.0053253174,-0.0010681152,-0.003189087
1579011922931,-0.0053253174,-0.0021362305,-0.0053253174
1579011922935,-0.0053253174,-0.0021362305,-0.0053253174
1579011922941,-0.007461548,-0.0010681152,-0.003189087
1579011922946,-0.0053253174,0.0,-0.0053253174
1579011922950,-0.0021362305,-0.0021362305,-0.0063934326
1579011922956,-0.004257202,-0.0010681152,-0.0053253174
1579011922961,-0.004257202,-0.0021362305,-0.0021362305
1579011922966,-0.0021362305,-0.003189087,-0.003189087
1579011922971,-0.003189087,-0.003189087,-0.004257202
1579011922976,-0.003189087,-0.0021362305,-0.004257202
1579011922981,-0.004257202,-0.0010681152,-0.004257202
1579011922986,-0.003189087,-0.0010681152,-0.0053253174
1579011922990,-0.003189087,-0.003189087,-0.003189087
1579011922996,-0.004257202,-0.0010681152,-0.004257202
1579011923002,-0.003189087,-0.0010681152,-0.0053253174
1579011923007,-0.0021362305,-0.0010681152,-0.0053253174
1579011923012,-0.0021362305,-0.0021362305,-0.004257202
1579011923016,-0.0010681152,-0.0021362305,-0.004257202
1579011923021,-0.004257202,-0.0021362305,-0.0053253174
1579011923027,-0.003189087,-0.0010681152,-0.003189087
1579011923032,-0.0010681152,-0.0010681152,-0.003189087
1579011923037,-0.0010681152,-0.0021362305,-0.004257202
1579011923042,-0.004257202,-0.0021362305,-0.004257202
1579011923047,-0.003189087,-0.0021362305,-0.004257202
1579011923052,-0.004257202,-0.0010681152,-0.004257202
1579011923057,-0.0053253174,-0.0010681152,-0.003189087
1579011923062,-0.004257202,-0.0010681152,-0.0053253174
1579011923068,-0.0053253174,-0.0021362305,-0.003189087
1579011923073,-0.003189087,-0.003189087,-0.004257202
1579011923078,-0.0021362305,-0.0010681152,-0.004257202
1579011923083,-0.0010681152,0.0,-0.003189087
1579011923087,-0.003189087,-0.0021362305,-0.004257202
1579011923093,-0.003189087,-0.0010681152,-0.003189087
1579011923098,-0.0010681152,-0.0010681152,-0.004257202
1579011923103,-0.0021362305,-0.003189087,-0.003189087
1579011923108,-0.003189087,-0.0010681152,-0.003189087
1579011923113,-0.004257202,-0.0010681152,-0.003189087
1579011923118,-0.0021362305,-0.0010681152,-0.004257202
1579011923123,-0.0010681152,-0.003189087,-0.004257202
1579011923128,-0.0010681152,-0.0010681152,-0.0053253174
1579011923132,-0.0010681152,-0.0010681152,-0.004257202
1579011923139,-0.004257202,-0.004257202,-0.004257202
1579011923144,-0.003189087,-0.0021362305,-0.003189087
1579011923149,-0.0021362305,-0.0021362305,-0.0053253174
1579011923154,-0.0021362305,-0.003189087,-0.004257202
1579011923159,-0.0021362305,-0.0010681152,-0.0053253174
1579011923164,-0.004257202,0.0,-0.0053253174
1579011923169,-0.004257202,-0.003189087,-0.004257202
1579011923174,-0.004257202,-0.003189087,-0.004257202
1579011923178,-0.003189087,-0.0010681152,-0.0053253174
1579011923184,-0.0010681152,-0.0010681152,-0.0053253174
1579011923189,-0.004257202,0.0,-0.003189087
1579011923194,-0.0053253174,-0.0021362305,-0.003189087
1579011923199,-0.004257202,-0.0010681152,-0.0053253174
1579011923203,-0.004257202,0.0,-0.0053253174
1579011923209,-0.003189087,-0.0021362305,-0.004257202
1579011923215,-0.0021362305,-0.0010681152,-0.004257202
1579011923219,0.0,-0.0021362305,-0.0053253174
1579011923225,0.0,-0.003189087,-0.003189087
1579011923229,-0.0010681152,-0.0010681152,-0.004257202
1579011923235,-0.003189087,-0.0010681152,-0.0063934326
1579011923239,-0.003189087,-0.004257202,-0.003189087
1579011923244,-0.004257202,-0.003189087,-0.004257202
1579011923250,-0.0021362305,-0.003189087,-0.0021362305
1579011923255,-0.0021362305,-0.0010681152,-0.003189087
1579011923260,-0.0021362305,-0.0010681152,-0.004257202
1579011923264,-0.0021362305,-0.004257202,-0.004257202
1579011923270,0.0,-0.0021362305,-0.004257202
1579011923274,-0.004257202,-0.0010681152,-0.0053253174
1579011923280,-0.003189087,-0.0021362305,-0.0053253174
1579011923286,-0.0021362305,-0.0010681152,-0.0053253174
1579011923291,-0.0021362305,-0.0021362305,-0.004257202
1579011923296,-0.0021362305,-0.0010681152,-0.003189087
1579011923301,-0.0010681152,-0.0021362305,-0.004257202
1579011923306,-0.0010681152,-0.0010681152,-0.004257202
1579011923311,-0.0010681152,0.0,-0.004257202
1579011923315,-0.0021362305,-0.004257202,-0.004257202
1579011923320,-0.0021362305,-0.0010681152,-0.0053253174
1579011923326,-0.0021362305,0.0010681152,-0.0053253174
1579011923330,-0.0021362305,-0.0010681152,-0.004257202
1579011923335,0.0,0.0,-0.0021362305
1579011923341,0.0,-0.0010681152,-0.003189087
1579011923346,-0.0021362305,-0.0010681152,-0.003189087
1579011923350,-0.004257202,-0.0010681152,-0.0053253174
1579011923357,-0.0021362305,0.0,-0.0053253174
1579011923361,0.0,-0.0021362305,-0.0053253174
1579011923367,-0.0010681152,-0.004257202,-0.004257202
1579011923371,-0.0021362305,-0.003189087,-0.003189087
1579011923377,-0.0021362305,-0.003189087,-0.004257202
1579011923382,-0.0021362305,0.0,-0.0053253174
1579011923387,-0.0021362305,-0.0021362305,-0.004257202
1579011923391,-0.0021362305,-0.0021362305,-0.004257202
1579011923397,-0.003189087,-0.0021362305,-0.0053253174
1579011923401,-0.0021362305,-0.0010681152,-0.004257202
1579011923406,-0.0010681152,-0.0010681152,-0.004257202
1579011923412,-0.0021362305,-0.0021362305,-0.003189087
1579011923417,0.0,0.0,-0.004257202
1579011923422,0.004257202,0.0,-0.0053253174
1579011923426,0.0063934326,-0.0021362305,-0.004257202
1579011923433,0.0063934326,-0.003189087,-0.003189087
1579011923437,-0.0010681152,-0.0095825195,-0.004257202
1579011923443,-0.0053253174,-0.0021362305,-0.004257202
1579011923447,-0.0063934326,0.0095825195,-0.004257202
1579011923453,-0.008529663,0.008529663,-0.003189087
1579011923458,-0.004257202,-0.007461548,-0.004257202
1579011923462,-0.0010681152,-0.01171875,-0.0053253174
1579011923468,-0.0021362305,0.0,-0.0053253174
1579011923473,-0.003189087,0.004257202,-0.004257202
1579011923478,-0.004257202,-0.0010681152,-0.0010681152
1579011923482,-0.003189087,-0.004257202,-0.004257202
1579011923488,0.0021362305,0.0,-0.0053253174
1579011923492,0.0,-0.003189087,-0.004257202
1579011923498,-0.0010681152,-0.0063934326,-0.0053253174
1579011923503,-0.0010681152,-0.0010681152,-0.003189087
1579011923508,-0.003189087,0.004257202,-0.003189087
1579011923514,-0.0021362305,-0.0021362305,-0.004257202
1579011923519,0.0010681152,-0.0063934326,-0.0053253174
1579011923524,-0.0010681152,-0.0021362305,-0.0053253174
1579011923529,-0.003189087,0.0010681152,-0.004257202
1579011923534,0.0010681152,-0.003189087,-0.004257202
1579011923539,0.0010681152,-0.003189087,-0.004257202
1579011923544,-0.0021362305,0.0010681152,-0.004257202
1579011923548,-0.003189087,-0.0010681152,-0.0010681152
1579011923553,-0.0010681152,-0.004257202,-0.003189087
1579011923559,0.0,-0.004257202,-0.0063934326
1579011923564,-0.0021362305,-0.0021362305,-0.004257202
1579011923569,-0.0021362305,-0.0010681152,-0.003189087
1579011923575,-0.0021362305,-0.0010681152,-0.0053253174
1579011923580,-0.003189087,-0.0010681152,-0.004257202
1579011923584,-0.003189087,-0.0010681152,-0.004257202
1579011923590,-0.0010681152,-0.0010681152,-0.0021362305
1579011923595,-0.0021362305,-0.0010681152,-0.003189087
1579011923599,-0.0021362305,-0.004257202,-0.0053253174
1579011923605,-0.0021362305,-0.003189087,-0.004257202
1579011923609,-0.003189087,-0.0021362305,-0.0053253174
1579011923614,-0.003189087,-0.0010681152,-0.004257202
1579011923619,-0.0010681152,-0.0021362305,-0.003189087
1579011923624,-0.0021362305,-0.0021362305,-0.004257202
1579011923629,-0.0021362305,-0.0021362305,-0.0063934326
1579011923635,-0.003189087,-0.0010681152,-0.0021362305
1579011923639,-0.0010681152,-0.0010681152,-0.003189087
1579011923645,-0.003189087,-0.003189087,-0.003189087
1579011923650,-0.0021362305,-0.0021362305,-0.003189087
1579011923656,-0.0010681152,-0.003189087,-0.004257202
1579011923660,-0.0021362305,-0.0021362305,-0.004257202
1579011923666,-0.0021362305,-0.0010681152,-0.0053253174
1579011923670,-0.0021362305,-0.0010681152,-0.003189087
1579011923675,-0.0010681152,-0.0021362305,-0.004257202
1579011923680,-0.004257202,-0.0021362305,-0.004257202
1579011923686,0.0,-0.0021362305,-0.003189087
1579011923690,0.0,0.0,-0.003189087
1579011923695,0.0,-0.0010681152,-0.007461548
1579011923701,0.0,-0.0010681152,-0.0053253174
1579011923705,-0.003189087,-0.0010681152,-0.004257202
1579011923711,-0.0010681152,-0.0010681152,-0.0063934326
1579011923715,-0.0021362305,-0.0010681152,-0.0063934326
1579011923722,-0.004257202,-0.0010681152,-0.0053253174
1579011923727,-0.003189087,-0.0010681152,-0.003189087
1579011923731,-0.003189087,-0.0021362305,-0.003189087
1579011923736,-0.003189087,-0.003189087,-0.0053253174
1579011923742,-0.003189087,-0.003189087,-0.004257202
1579011923746,-0.003189087,-0.003189087,-0.004257202
1579011923752,-0.0010681152,-0.003189087,-0.004257202
1579011923756,-0.003189087,-0.0021362305,-0.004257202
1579011923762,-0.0010681152,-0.0010681152,-0.004257202
1579011923767,0.0,-0.0021362305,-0.004257202
1579011923772,-0.0021362305,-0.0010681152,-0.0053253174
1579011923777,-0.004257202,-0.0021362305,-0.004257202
1579011923782,-0.0021362305,-0.0021362305,-0.0053253174
1579011923787,-0.0021362305,-0.003189087,-0.0053253174
1579011923793,-0.0010681152,-0.003189087,-0.0053253174
1579011923798,-0.0010681152,-0.0010681152,-0.003189087
1579011923803,-0.003189087,0.0,-0.003189087
1579011923808,-0.003189087,-0.0021362305,-0.0053253174
1579011923812,-0.0010681152,-0.0021362305,-0.003189087
1579011923818,0.0,-0.0021362305,-0.003189087
1579011923823,-0.003189087,-0.0010681152,-0.004257202
1579011923827,-0.003189087,-0.003189087,-0.0053253174
1579011923832,-0.0010681152,-0.0021362305,-0.003189087
1579011923838,-0.003189087,-0.0010681152,-0.004257202
1579011923842,-0.003189087,-0.0021362305,-0.004257202
1579011923848,-0.004257202,-0.0021362305,-0.004257202
1579011923852,-0.004257202,-0.0021362305,-0.004257202
1579011923858,-0.0021362305,-0.0021362305,-0.003189087
1579011923862,-0.004257202,-0.003189087,-0.004257202
1579011923869,-0.003189087,-0.0010681152,-0.0063934326
1579011923874,-0.003189087,-0.0021362305,-0.0063934326
1579011923879,-0.003189087,-0.0021362305,-0.004257202
1579011923884,0.0,-0.0021362305,-0.004257202
1579011923889,0.0,-0.0010681152,-0.004257202
1579011923893,-0.003189087,-0.0021362305,-0.003189087
1579011923899,-0.003189087,-0.0010681152,-0.004257202
1579011923904,-0.003189087,0.0,-0.004257202
1579011923909,-0.003189087,-0.0021362305,-0.0053253174
1579011923914,-0.0021362305,-0.0021362305,-0.004257202
1579011923918,-0.0010681152,-0.003189087,-0.0053253174
1579011923924,-0.003189087,-0.0021362305,-0.003189087
1579011923929,-0.004257202,-0.0010681152,-0.004257202
1579011923934,-0.0021362305,-0.0010681152,-0.003189087
1579011923939,-0.0021362305,0.0,-0.004257202
1579011923945,-0.003189087,-0.0010681152,-0.0053253174
1579011923950,-0.003189087,-0.0021362305,-0.0053253174
1579011923954,-0.003189087,-0.003189087,-0.0053253174
1579011923959,-0.003189087,-0.0010681152,-0.0053253174
1579011923965,-0.004257202,-0.0010681152,-0.004257202
1579011923969,-0.004257202,-0.0010681152,-0.0010681152
1579011923975,-0.0010681152,0.0,-0.004257202
1579011923979,-0.003189087,-0.0010681152,-0.004257202
1579011923985,-0.0021362305,-0.0010681152,-0.004257202
1579011923989,-0.003189087,-0.0010681152,-0.003189087
1579011923995,-0.003189087,-0.0010681152,-0.003189087
1579011923999,0.0,-0.003189087,-0.004257202
1579011924005,0.0,-0.003189087,-0.0053253174
1579011924011,-0.0010681152,-0.0021362305,-0.004257202
1579011924015,-0.0021362305,-0.003189087,-0.0053253174
1579011924021,-0.004257202,-0.0053253174,-0.0063934326
1579011924026,-0.004257202,-0.003189087,-0.0053253174
1579011924031,-0.004257202,0.0,-0.003189087
1579011924036,-0.0021362305,-0.0021362305,-0.004257202
1579011924040,-0.0021362305,-0.0021362305,-0.004257202
1579011924046,-0.003189087,-0.0021362305,-0.004257202
1579011924050,-0.0021362305,-0.003189087,-0.003189087
1579011924055,-0.004257202,-0.0010681152,-0.003189087
1579011924061,-0.0053253174,-0.0021362305,-0.0053253174
1579011924066,-0.003189087,-0.0021362305,-0.0053253174
1579011924071,-0.004257202,-0.0021362305,-0.004257202
1579011924076,-0.003189087,-0.0021362305,-0.0053253174
1579011924081,-0.0010681152,-0.0010681152,-0.0053253174
1579011924086,-0.003189087,-0.0021362305,-0.0053253174
1579011924092,-0.004257202,-0.0021362305,-0.0053253174
1579011924096,-0.004257202,-0.0021362305,-0.0063934326
1579011924101,-0.004257202,-0.0010681152,-0.0053253174
1579011924107,-0.0053253174,-0.0021362305,-0.0053253174
1579011924111,-0.003189087,0.0,-0.0053253174
1579011924117,-0.003189087,-0.0010681152,-0.0053253174
1579011924122,-0.003189087,-0.0010681152,-0.0053253174
1579011924127,-0.004257202,-0.0010681152,-0.004257202
1579011924132,-0.0021362305,-0.0021362305,-0.0053253174
1579011924137,-0.0010681152,-0.0021362305,-0.004257202
1579011924142,-0.003189087,-0.0010681152,-0.003189087
1579011924147,-0.003189087,-0.0010681152,-0.004257202
1579011924152,-0.003189087,-0.003189087,-0.004257202
1579011924157,-0.003189087,-0.003189087,-0.004257202
1579011924162,-0.004257202,-0.0021362305,-0.004257202
1579011924168,-0.004257202,-0.0021362305,-0.0053253174
1579011924173,-0.003189087,-0.0021362305,-0.004257202
1579011924178,-0.003189087,-0.0021362305,-0.0063934326
1579011924182,-0.0053253174,-0.0021362305,-0.0063934326
1579011924188,-0.004257202,-0.003189087,-0.0053253174
1579011924193,-0.003189087,-0.003189087,-0.0053253174
1579011924198,-0.0021362305,-0.0010681152,-0.0053253174
1579011924203,-0.0021362305,-0.0010681152,-0.0053253174
1579011924208,-0.0021362305,-0.0010681152,-0.003189087
1579011924212,-0.003189087,-0.0021362305,-0.0053253174
1579011924217,-0.003189087,-0.003189087,-0.004257202
1579011924223,-0.003189087,-0.0021362305,-0.0021362305
1579011924229,-0.004257202,0.0,-0.004257202
1579011924233,-0.004257202,-0.003189087,-0.0053253174
1579011924239,-0.004257202,-0.0021362305,-0.004257202
1579011924244,-0.004257202,-0.0010681152,-0.004257202
1579011924249,-0.004257202,-0.0021362305,-0.004257202
1579011924254,-0.0021362305,-0.003189087,-0.0053253174
1579011924259,-0.003189087,-0.003189087,-0.004257202
1579011924264,-0.003189087,-0.0021362305,-0.004257202
1579011924269,-0.0021362305,-0.003189087,-0.004257202
1579011924273,-0.0021362305,-0.003189087,-0.0053253174
1579011924278,-0.0021362305,-0.003189087,-0.004257202
1579011924284,-0.0021362305,-0.0021362305,-0.003189087
1579011924288,-0.003189087,-0.0021362305,-0.004257202
1579011924293,-0.003189087,-0.0021362305,-0.0063934326
1579011924298,-0.004257202,-0.0021362305,-0.004257202
1579011924305,-0.003189087,-0.0010681152,-0.004257202
1579011924310,-0.003189087,-0.0010681152,-0.0053253174
1579011924314,-0.0021362305,-0.0021362305,-0.0063934326
1579011924319,-0.003189087,-0.0010681152,-0.003189087
1579011924324,-0.0053253174,-0.0010681152,-0.003189087
1579011924330,-0.0053253174,-0.004257202,-0.003189087
1579011924334,-0.003189087,-0.0010681152,-0.004257202
1579011924340,-0.004257202,0.0021362305,-0.0053253174
1579011924345,-0.004257202,-0.004257202,-0.0053253174
1579011924350,-0.003189087,-0.003189087,-0.004257202
1579011924355,-0.0010681152,0.0010681152,-0.004257202
1579011924360,-0.004257202,-0.0021362305,-0.004257202
1579011924365,-0.0021362305,-0.003189087,-0.004257202
1579011924369,-0.003189087,-0.0010681152,-0.0021362305
1579011924376,-0.004257202,-0.0010681152,-0.004257202
1579011924381,-0.003189087,-0.003189087,-0.0053253174
1579011924386,-0.0021362305,-0.004257202,-0.0053253174
1579011924390,-0.0021362305,-0.0021362305,-0.0063934326
1579011924395,-0.004257202,-0.003189087,-0.004257202
1579011924401,-0.003189087,-0.0021362305,-0.003189087
1579011924405,-0.003189087,-0.0010681152,-0.003189087
1579011924411,-0.004257202,-0.0021362305,-0.003189087
1579011924416,-0.003189087,-0.003189087,-0.004257202
1579011924421,-0.003189087,-0.0010681152,-0.0053253174
1579011924425,-0.004257202,-0.0021362305,-0.0053253174
1579011924430,-0.0021362305,-0.0021362305,-0.004257202
1579011924436,-0.0021362305,-0.0021362305,-0.0053253174
1579011924441,-0.003189087,-0.0021362305,-0.0053253174
1579011924447,-0.003189087,-0.0021362305,-0.003189087
1579011924452,-0.0021362305,-0.0010681152,-0.003189087
1579011924457,-0.0053253174,-0.0010681152,-0.004257202
1579011924462,-0.003189087,-0.0021362305,-0.004257202
1579011924467,-0.003189087,-0.0010681152,-0.004257202
1579011924471,-0.0053253174,-0.0010681152,-0.004257202
1579011924476,-0.0021362305,-0.0010681152,-0.004257202
1579011924482,-0.0010681152,-0.003189087,-0.0063934326
1579011924486,-0.0021362305,-0.003189087,-0.0053253174
1579011924491,-0.0010681152,-0.0010681152,-0.004257202
1579011924497,-0.0021362305,-0.0010681152,-0.0053253174
1579011924501,-0.0010681152,0.0,-0.004257202
1579011924507,-0.0010681152,0.0021362305,-0.004257202
1579011924512,-0.0021362305,-0.0010681152,-0.004257202
1579011924517,0.0010681152,-0.003189087,-0.003189087
1579011924523,0.0,-0.0010681152,-0.0010681152
1579011924528,-0.003189087,-0.003189087,-0.003189087
1579011924532,-0.0021362305,-0.003189087,-0.004257202
1579011924538,0.0,-0.0010681152,-0.004257202
1579011924543,-0.0010681152,-0.0010681152,-0.004257202
1579011924548,-0.0010681152,-0.0021362305,-0.0021362305
1579011924553,-0.0010681152,-0.0021362305,-0.004257202
1579011924558,-0.0010681152,-0.0021362305,-0.004257202
1579011924563,-0.0021362305,-0.0021362305,-0.003189087
1579011924568,-0.0021362305,-0.0021362305,-0.003189087
1579011924573,-0.004257202,-0.0021362305,-0.0053253174
1579011924577,-0.0021362305,-0.0010681152,-0.0053253174
1579011924583,-0.003189087,-0.003189087,-0.004257202
1579011924588,-0.0010681152,-0.0010681152,-0.0053253174
1579011924594,-0.0010681152,-0.0010681152,-0.0053253174
1579011924598,-0.003189087,-0.0021362305,-0.004257202
1579011924604,-0.0021362305,-0.0021362305,-0.004257202
1579011924609,-0.0021362305,-0.0010681152,-0.0063934326
1579011924614,-0.0010681152,-0.0010681152,-0.004257202
1579011924619,-0.0021362305,-0.0010681152,-0.003189087
1579011924624,-0.003189087,-0.0021362305,-0.0053253174
1579011924629,-0.0010681152,-0.0010681152,-0.0053253174
1579011924634,-0.0010681152,-0.0010681152,-0.0053253174
1579011924639,-0.0010681152,-0.003189087,-0.0053253174
1579011924643,-0.0021362305,-0.0021362305,-0.004257202
1579011924648,-0.003189087,-0.0010681152,-0.003189087
1579011924654,-0.0021362305,-0.0021362305,-0.004257202
1579011924659,-0.0021362305,-0.003189087,-0.0053253174
1579011924663,-0.0021362305,-0.003189087,-0.0053253174
1579011924669,-0.0021362305,-0.003189087,-0.004257202
1579011924675,-0.003189087,-0.0010681152,-0.0053253174
1579011924679,-0.003189087,-0.0010681152,-0.003189087
1579011924685,-0.0021362305,0.0,-0.004257202
1579011924690,-0.003189087,0.0,-0.003189087
1579011924695,-0.0010681152,-0.0010681152,-0.004257202
1579011924700,-0.003189087,-0.0021362305,-0.004257202
1579011924705,-0.0021362305,-0.0021362305,-0.004257202
1579011924710,-0.003189087,-0.0021362305,-0.0053253174
1579011924715,-0.0010681152,-0.003189087,-0.0053253174
1579011924720,-0.0021362305,-0.0010681152,-0.003189087
1579011924725,-0.0010681152,-0.0021362305,-0.004257202
1579011924729,-0.0021362305,-0.0021362305,-0.0053253174
1579011924734,-0.004257202,-0.0010681152,-0.0053253174
1579011924741,-0.003189087,-0.0021362305,-0.004257202
1579011924746,-0.003189087,-0.0021362305,-0.004257202
1579011924751,-0.0021362305,-0.0021362305,-0.004257202
1579011924756,-0.0021362305,-0.0021362305,-0.004257202
1579011924761,-0.003189087,-0.0021362305,-0.0053253174
1579011924765,-0.003189087,-0.0010681152,-0.004257202
1579011924770,-0.003189087,-0.0010681152,-0.004257202
1579011924776,-0.0021362305,-0.0021362305,-0.0021362305
1579011924781,-0.0021362305,-0.003189087,-0.0053253174
1579011924786,-0.003189087,-0.004257202,-0.004257202
1579011924791,-0.0010681152,-0.0021362305,-0.004257202
1579011924796,-0.003189087,0.0,-0.003189087
1579011924800,-0.003189087,0.0,-0.004257202
1579011924805,-0.003189087,-0.0010681152,-0.0063934326
1579011924812,-0.003189087,-0.0021362305,-0.0053253174
1579011924817,-0.0010681152,-0.0021362305,-0.004257202
1579011924822,-0.0021362305,-0.0021362305,-0.003189087
1579011924827,-0.003189087,-0.003189087,-0.003189087
1579011924831,-0.0021362305,-0.0021362305,-0.004257202
1579011924837,-0.0021362305,-0.0010681152,-0.0053253174
1579011924841,-0.0021362305,-0.003189087,-0.004257202
1579011924847,-0.0053253174,-0.003189087,-0.003189087
1579011924852,-0.004257202,0.0,-0.004257202
1579011924857,-0.0021362305,-0.0010681152,-0.0053253174
1579011924862,-0.0021362305,-0.0021362305,-0.004257202
1579011924867,-0.0010681152,0.0,-0.0021362305
1579011924871,-0.0010681152,-0.0021362305,-0.0021362305
1579011924877,-0.0021362305,-0.0010681152,-0.003189087
1579011924883,-0.0021362305,-0.0021362305,-0.004257202
1579011924888,-0.0010681152,-0.0021362305,-0.0021362305
1579011924893,-0.003189087,-0.0010681152,-0.004257202
1579011924898,-0.0021362305,-0.0021362305,-0.0053253174
1579011924902,-0.003189087,-0.0010681152,-0.004257202
1579011924908,-0.0021362305,-0.0021362305,-0.0021362305
1579011924913,-0.0021362305,-0.003189087,-0.003189087
1579011924918,-0.0010681152,-0.0021362305,-0.004257202
1579011924922,0.0,-0.0010681152,-0.003189087
1579011924928,-0.0010681152,-0.0010681152,-0.0053253174
1579011924932,-0.0053253174,-0.003189087,-0.0053253174
1579011924937,-0.003189087,-0.003189087,-0.0053253174
1579011924942,-0.003189087,-0.0021362305,-0.004257202
1579011924948,-0.003189087,-0.0021362305,-0.0063934326
1579011924953,-0.003189087,-0.0010681152,-0.003189087
1579011924959,-0.003189087,-0.003189087,-0.0010681152
1579011924964,-0.003189087,-0.0021362305,-0.003189087
1579011924969,-0.0021362305,-0.0010681152,-0.004257202
1579011924974,-0.0021362305,-0.003189087,-0.0053253174
1579011924979,-0.0021362305,-0.003189087,-0.0053253174
1579011924984,-0.0021362305,-0.0021362305,-0.0053253174
1579011924989,-0.003189087,-0.0021362305,-0.0063934326
1579011924994,-0.004257202,-0.0021362305,-0.0063934326
1579011924999,-0.0021362305,-0.0021362305,-0.004257202
1579011925004,-0.003189087,-0.003189087,-0.004257202
1579011925009,-0.004257202,-0.003189087,-0.0053253174
1579011925013,-0.003189087,-0.003189087,-0.003189087
1579011925018,-0.0010681152,-0.0010681152,-0.003189087
1579011925023,-0.004257202,-0.0010681152,-0.007461548
1579011925029,-0.0053253174,-0.0010681152,-0.0063934326
1579011925035,-0.003189087,0.0,-0.004257202
1579011925039,-0.0021362305,-0.0010681152,-0.0053253174
1579011925045,-0.004257202,-0.003189087,-0.003189087
1579011925049,-0.0021362305,-0.0010681152,-0.004257202
1579011925054,0.0,-0.0010681152,-0.0053253174
1579011925060,-0.003189087,-0.003189087,-0.004257202
1579011925065,-0.003189087,-0.0021362305,-0.004257202
1579011925069,-0.003189087,0.0,-0.0053253174
1579011925075,-0.004257202,-0.0010681152,-0.0053253174
1579011925080,-0.003189087,-0.0010681152,-0.004257202
1579011925085,-0.003189087,-0.0021362305,-0.004257202
1579011925090,-0.003189087,-0.0021362305,-0.0053253174
1579011925094,-0.003189087,-0.0021362305,-0.0053253174
1579011925099,-0.003189087,-0.0010681152,-0.0063934326
1579011925106,-0.0021362305,-0.0010681152,-0.0053253174
1579011925111,-0.0010681152,-0.0021362305,-0.0021362305
1579011925116,0.0,-0.0021362305,-0.0053253174
1579011925121,-0.004257202,0.0,-0.0063934326
1579011925125,-0.004257202,-0.0010681152,-0.004257202
1579011925131,-0.0021362305,-0.003189087,-0.0053253174
1579011925135,-0.003189087,-0.0021362305,-0.004257202
1579011925141,-0.003189087,-0.0010681152,-0.003189087
1579011925145,-0.003189087,-0.0021362305,-0.003189087
1579011925150,-0.0010681152,-0.0021362305,-0.0053253174
1579011925156,-0.0021362305,-0.0021362305,-0.004257202
1579011925160,-0.0021362305,-0.0010681152,-0.0053253174
1579011925166,-0.0021362305,0.0,-0.004257202
1579011925171,-0.003189087,0.0010681152,-0.004257202
1579011925177,-0.0021362305,-0.003189087,-0.003189087
1579011925182,-0.0021362305,-0.0021362305,-0.004257202
1579011925187,-0.003189087,-0.003189087,-0.004257202
1579011925192,-0.003189087,-0.003189087,-0.004257202
1579011925197,-0.003189087,-0.0021362305,-0.0053253174
1579011925201,-0.003189087,-0.0010681152,-0.003189087
1579011925206,-0.003189087,-0.003189087,-0.004257202
1579011925211,-0.0021362305,-0.003189087,-0.003189087
1579011925216,-0.003189087,-0.003189087,-0.0021362305
1579011925222,-0.003189087,-0.003189087,-0.004257202
1579011925226,-0.003189087,0.0,-0.004257202
1579011925232,-0.0021362305,-0.0010681152,-0.003189087
1579011925236,-0.003189087,-0.003189087,-0.004257202
1579011925242,-0.0053253174,-0.0021362305,-0.003189087
1579011925248,-0.0021362305,-0.0021362305,-0.004257202
1579011925253,-0.004257202,-0.0021362305,-0.004257202
1579011925258,-0.003189087,-0.0021362305,-0.0021362305
1579011925263,-0.0021362305,-0.0021362305,-0.004257202
1579011925268,-0.0021362305,-0.0021362305,-0.004257202
1579011925273,-0.003189087,-0.003189087,-0.0053253174
1579011925278,-0.004257202,-0.003189087,-0.0053253174
1579011925282,-0.0053253174,-0.0021362305,-0.0053253174
1579011925288,-0.004257202,-0.003189087,-0.0063934326
1579011925293,-0.0010681152,-0.0021362305,-0.0053253174
1579011925298,-0.004257202,-0.0010681152,-0.0053253174
1579011925302,-0.004257202,-0.0021362305,-0.0053253174
1579011925307,-0.0010681152,0.0,-0.004257202
1579011925313,-0.0021362305,-0.0010681152,-0.003189087
1579011925318,-0.004257202,-0.0010681152,-0.003189087
1579011925323,-0.004257202,-0.0021362305,-0.0063934326
1579011925329,-0.003189087,-0.0021362305,-0.0053253174
1579011925333,-0.003189087,-0.0010681152,-0.004257202
1579011925339,-0.004257202,-0.0021362305,-0.004257202
1579011925344,-0.004257202,-0.0021362305,-0.0053253174
1579011925348,-0.003189087,-0.0021362305,-0.003189087
1579011925354,-0.003189087,-0.0021362305,-0.0053253174
1579011925359,-0.0021362305,-0.0021362305,-0.007461548
1579011925363,-0.003189087,-0.0010681152,-0.0053253174
1579011925369,-0.003189087,-0.0021362305,-0.004257202
1579011925374,-0.0021362305,-0.003189087,-0.0021362305
1579011925379,-0.0010681152,-0.0021362305,-0.004257202
1579011925384,-0.0010681152,-0.003189087,-0.004257202
1579011925388,-0.0010681152,0.0,-0.004257202
1579011925395,-0.0010681152,-0.0021362305,-0.004257202
1579011925400,-0.0021362305,-0.0021362305,-0.004257202
1579011925404,-0.0010681152,-0.003189087,-0.0053253174
1579011925410,-0.003189087,-0.0010681152,-0.004257202
1579011925414,0.0,-0.003189087,-0.004257202
1579011925420,0.0,-0.003189087,-0.004257202
1579011925425,-0.003189087,-0.0010681152,-0.0053253174
1579011925430,-0.0010681152,-0.0021362305,-0.004257202
1579011925435,0.0010681152,-0.0021362305,-0.0053253174
1579011925439,0.0,-0.0021362305,-0.003189087
1579011925445,-0.0021362305,-0.004257202,-0.003189087
1579011925450,-0.0010681152,-0.0021362305,-0.0053253174
1579011925455,-0.0010681152,-0.0010681152,-0.003189087
1579011925459,0.0,-0.003189087,-0.0053253174
1579011925466,-0.0021362305,-0.0010681152,-0.004257202
1579011925470,-0.0021362305,-0.0010681152,-0.004257202
1579011925476,-0.003189087,-0.0010681152,-0.003189087
1579011925481,-0.0021362305,-0.0010681152,-0.003189087
1579011925486,-0.0021362305,-0.0021362305,-0.0053253174
1579011925491,-0.0010681152,-0.0021362305,-0.004257202
1579011925496,0.0,-0.0021362305,-0.0053253174
1579011925500,-0.004257202,-0.003189087,-0.004257202
1579011925506,-0.004257202,-0.0010681152,-0.003189087
1579011925510,-0.0010681152,-0.0021362305,-0.004257202
1579011925515,0.0021362305,-0.0010681152,-0.004257202
1579011925521,0.003189087,-0.003189087,-0.004257202
1579011925525,-0.0021362305,-0.0021362305,-0.0021362305
1579011925531,-0.0010681152,-0.0010681152,-0.003189087
1579011925537,-0.0021362305,-0.0021362305,-0.004257202
1579011925542,-0.0021362305,-0.0010681152,-0.004257202
1579011925547,-0.0021362305,0.0,-0.004257202
1579011925552,-0.0021362305,-0.0010681152,-0.0053253174
1579011925556,-0.003189087,0.0,-0.004257202
1579011925562,-0.0021362305,-0.0010681152,-0.004257202
1579011925566,-0.003189087,-0.0021362305,-0.003189087
1579011925572,-0.003189087,-0.0021362305,-0.0021362305
1579011925576,-0.003189087,-0.0021362305,-0.0053253174
1579011925581,-0.003189087,-0.004257202,-0.004257202
1579011925587,-0.003189087,-0.0010681152,-0.0053253174
1579011925591,-0.0021362305,-0.0021362305,-0.0053253174
1579011925597,-0.0010681152,-0.0021362305,-0.004257202
1579011925601,-0.0021362305,-0.0021362305,-0.0053253174
1579011925607,-0.003189087,-0.004257202,-0.0053253174
1579011925612,-0.0021362305,-0.004257202,-0.0063934326
1579011925618,-0.0010681152,-0.003189087,-0.0063934326
1579011925622,-0.003189087,-0.0010681152,-0.0053253174
1579011925627,-0.0010681152,0.0,-0.0063934326
1579011925633,-0.0021362305,-0.0021362305,-0.0063934326
1579011925638,-0.003189087,-0.0021362305,-0.004257202
1579011925642,-0.0021362305,-0.0021362305,-0.003189087
1579011925648,-0.0010681152,-0.0021362305,-0.004257202
1579011925652,-0.0021362305,0.0,-0.004257202
1579011925658,-0.0010681152,-0.0010681152,-0.004257202
1579011925662,-0.0021362305,-0.0010681152,-0.004257202
1579011925668,-0.003189087,-0.0021362305,-0.0021362305
1579011925672,-0.0021362305,-0.0010681152,-0.003189087
1579011925677,-0.0010681152,-0.0010681152,-0.003189087
1579011925684,-0.0021362305,-0.0010681152,-0.004257202
1579011925689,-0.003189087,-0.0021362305,-0.003189087
1579011925694,-0.0021362305,0.0,-0.003189087
1579011925698,-0.0021362305,-0.0010681152,-0.003189087
1579011925703,-0.0021362305,-0.0021362305,-0.0053253174
1579011925708,-0.003189087,-0.003189087,-0.004257202
1579011925714,-0.0021362305,-0.003189087,-0.0053253174
1579011925719,-0.004257202,-0.0021362305,-0.004257202
1579011925724,-0.004257202,0.0,-0.003189087
1579011925729,-0.004257202,-0.0010681152,-0.004257202
1579011925733,-0.003189087,-0.004257202,-0.004257202
1579011925739,-0.0021362305,-0.003189087,-0.004257202
1579011925744,-0.0021362305,-0.0010681152,-0.004257202
1579011925749,-0.004257202,-0.0021362305,-0.0053253174
1579011925753,-0.004257202,-0.0021362305,-0.004257202
1579011925759,-0.003189087,-0.0021362305,-0.0053253174
1579011925765,-0.003189087,-0.0021362305,-0.004257202
1579011925770,-0.004257202,-0.0010681152,-0.0021362305
1579011925775,-0.0010681152,-0.0010681152,-0.0053253174
1579011925779,-0.0021362305,-0.0010681152,-0.0063934326
1579011925784,-0.004257202,-0.003189087,-0.004257202
1579011925789,-0.003189087,-0.0021362305,-0.003189087
1579011925795,-0.004257202,-0.0021362305,-0.0053253174
1579011925800,-0.004257202,-0.0021362305,-0.004257202
1579011925805,-0.0021362305,-0.0021362305,-0.003189087
1579011925809,-0.003189087,-0.0021362305,-0.004257202
1579011925815,-0.003189087,-0.0010681152,-0.0053253174
1579011925820,-0.003189087,-0.003189087,-0.004257202
1579011925825,-0.0021362305,-0.003189087,-0.0053253174
1579011925831,-0.003189087,-0.0010681152,-0.0053253174
1579011925836,-0.0053253174,-0.0021362305,-0.0053253174
1579011925840,-0.003189087,-0.003189087,-0.004257202
1579011925845,-0.003189087,0.0,-0.004257202
1579011925850,-0.003189087,-0.0010681152,-0.0063934326
1579011925856,-0.0021362305,-0.0021362305,-0.0053253174
1579011925860,-0.0010681152,0.0,-0.0021362305
1579011925866,-0.003189087,-0.0021362305,-0.0010681152
1579011925871,-0.0021362305,-0.0021362305,-0.0021362305
1579011925875,-0.0010681152,0.0,-0.0053253174
1579011925880,-0.0010681152,-0.0010681152,-0.0053253174
1579011925886,0.0,-0.0021362305,-0.0053253174
1579011925891,-0.0021362305,-0.003189087,-0.0053253174
1579011925896,-0.003189087,-0.0021362305,-0.0053253174
1579011925902,-0.0021362305,0.0,-0.0053253174
1579011925906,-0.003189087,-0.0021362305,-0.003189087
1579011925912,-0.003189087,-0.0021362305,-0.0053253174
1579011925917,-0.004257202,-0.0021362305,-0.004257202
1579011925922,-0.004257202,-0.0010681152,-0.0053253174
1579011925927,-0.004257202,-0.0021362305,-0.0053253174
1579011925932,-0.004257202,-0.0021362305,-0.0053253174
1579011925937,-0.0021362305,-0.0010681152,-0.004257202
1579011925941,-0.0021362305,-0.0021362305,-0.004257202
1579011925947,-0.003189087,-0.0021362305,-0.003189087
1579011925951,-0.003189087,-0.0010681152,-0.0063934326
1579011925957,-0.0021362305,0.0,-0.004257202
1579011925962,-0.0021362305,-0.0021362305,-0.0053253174
1579011925966,-0.0010681152,-0.0021362305,-0.004257202
1579011925973,-0.003189087,0.0,-0.003189087
1579011925978,-0.004257202,0.0,-0.0053253174
1579011925983,-0.0021362305,-0.0010681152,-0.004257202
1579011925988,-0.0021362305,0.0,-0.0021362305
1579011925993,-0.003189087,-0.0010681152,-0.0021362305
1579011925998,-0.003189087,-0.003189087,-0.004257202
1579011926003,-0.0010681152,-0.0021362305,-0.004257202
1579011926007,-0.0010681152,-0.003189087,-0.0021362305
1579011926013,-0.0021362305,-0.003189087,-0.004257202
1579011926018,-0.004257202,-0.003189087,-0.0063934326
1579011926023,-0.0021362305,-0.0021362305,-0.004257202
1579011926027,-0.0021362305,-0.0010681152,-0.004257202
1579011926033,-0.003189087,0.0,-0.004257202
1579011926038,-0.0021362305,-0.0010681152,-0.0053253174
1579011926043,-0.003189087,-0.0021362305,-0.003189087
1579011926048,-0.003189087,-0.0010681152,-0.0021362305
1579011926054,-0.0053253174,-0.0021362305,-0.0053253174
1579011926058,-0.003189087,-0.0021362305,-0.0053253174
1579011926063,-0.003189087,-0.0021362305,-0.0053253174
1579011926069,-0.0021362305,-0.0021362305,-0.004257202
1579011926073,-0.0010681152,-0.0021362305,-0.003189087
1579011926079,-0.003189087,-0.003189087,-0.0063934326
1579011926084,-0.004257202,-0.0010681152,-0.0053253174
1579011926089,-0.003189087,-0.0010681152,-0.0053253174
1579011926094,-0.0021362305,-0.003189087,-0.004257202
1579011926099,-0.0021362305,-0.0021362305,-0.0021362305
1579011926104,-0.0010681152,-0.0021362305,-0.003189087
1579011926109,0.0,-0.0021362305,-0.003189087
1579011926114,-0.004257202,-0.003189087,-0.003189087
1579011926120,-0.004257202,0.0,-0.0053253174
1579011926125,-0.004257202,0.0,-0.004257202
1579011926129,-0.0021362305,-0.0021362305,-0.003189087
1579011926135,-0.003189087,-0.003189087,-0.003189087
1579011926140,-0.004257202,0.0010681152,-0.0053253174
1579011926144,-0.003189087,-0.0010681152,-0.0053253174
1579011926150,-0.0021362305,-0.003189087,-0.004257202
1579011926155,-0.004257202,-0.0021362305,-0.004257202
1579011926160,-0.004257202,-0.0021362305,-0.004257202
1579011926164,-0.0021362305,-0.003189087,-0.0053253174
1579011926169,-0.004257202,-0.0021362305,-0.0053253174
1579011926174,-0.003189087,-0.0010681152,-0.0021362305
1579011926180,-0.0053253174,-0.0021362305,-0.004257202
1579011926185,-0.004257202,-0.0021362305,-0.0063934326
1579011926190,-0.004257202,-0.0010681152,-0.007461548
1579011926196,-0.003189087,-0.0021362305,-0.0021362305
1579011926201,-0.003189087,-0.0010681152,-0.0021362305
1579011926205,-0.003189087,-0.0010681152,-0.004257202
1579011926211,-0.0010681152,-0.0010681152,-0.0053253174
1579011926216,-0.0021362305,-0.0010681152,-0.003189087
1579011926220,-0.0021362305,-0.0021362305,-0.003189087
1579011926226,-0.003189087,-0.0021362305,-0.0063934326
1579011926230,-0.003189087,-0.0010681152,-0.0053253174
1579011926235,-0.0021362305,-0.0021362305,-0.0053253174
1579011926240,-0.0021362305,-0.003189087,-0.003189087
1579011926246,-0.003189087,-0.0021362305,-0.0063934326
1579011926251,-0.0021362305,-0.0021362305,-0.004257202
1579011926256,-0.004257202,-0.0021362305,-0.003189087
1579011926261,-0.003189087,-0.003189087,-0.004257202
1579011926267,-0.004257202,-0.0021362305,-0.004257202
1579011926272,-0.003189087,-0.0010681152,-0.004257202
1579011926277,-0.003189087,-0.0010681152,-0.004257202
1579011926282,-0.003189087,-0.003189087,-0.003189087
1579011926287,-0.004257202,-0.003189087,-0.003189087
1579011926291,-0.004257202,-0.0010681152,-0.0053253174
1579011926297,-0.003189087,0.0,-0.0053253174
1579011926302,-0.0021362305,-0.0010681152,-0.0053253174
1579011926307,-0.003189087,-0.0021362305,-0.003189087
1579011926312,-0.003189087,0.0010681152,-0.003189087
1579011926317,-0.003189087,-0.0010681152,-0.004257202
1579011926322,-0.003189087,-0.003189087,-0.004257202
1579011926326,-0.003189087,-0.0010681152,-0.004257202
1579011926331,-0.0021362305,-0.0010681152,-0.004257202
1579011926337,-0.0010681152,-0.0021362305,-0.0053253174
1579011926343,-0.003189087,-0.0021362305,-0.004257202
1579011926347,-0.004257202,-0.0021362305,-0.003189087
1579011926352,-0.0021362305,-0.0021362305,-0.004257202
1579011926358,-0.004257202,0.0,-0.004257202
1579011926362,-0.0021362305,-0.0021362305,-0.0053253174
1579011926368,-0.0010681152,-0.003189087,-0.004257202
1579011926373,-0.0021362305,-0.0010681152,-0.004257202
1579011926377,-0.0021362305,-0.0010681152,-0.0053253174
1579011926383,-0.0010681152,-0.003189087,-0.004257202
1579011926388,-0.0021362305,0.0,-0.004257202
1579011926393,-0.0021362305,0.0,-0.004257202
1579011926398,-0.0021362305,-0.0010681152,-0.0053253174
1579011926403,-0.0021362305,-0.0021362305,-0.0053253174
1579011926409,-0.0021362305,-0.0021362305,-0.0053253174
1579011926414,-0.0021362305,-0.0021362305,-0.003189087
1579011926419,-0.0021362305,-0.0010681152,-0.003189087
1579011926423,-0.004257202,-0.0021362305,-0.0053253174
1579011926429,-0.0021362305,-0.0010681152,-0.003189087
1579011926434,-0.0021362305,-0.0010681152,-0.003189087
1579011926438,-0.003189087,-0.0010681152,-0.004257202
1579011926444,-0.0021362305,-0.0021362305,-0.0053253174
1579011926448,-0.0010681152,-0.0010681152,-0.0053253174
1579011926453,0.0,-0.0021362305,-0.004257202
1579011926459,-0.0021362305,-0.003189087,-0.0053253174
1579011926464,-0.003189087,-0.0021362305,-0.003189087
1579011926469,-0.004257202,0.0,-0.003189087
1579011926473,-0.0021362305,-0.0010681152,-0.004257202
1579011926478,-0.0053253174,-0.003189087,-0.003189087
1579011926485,-0.0021362305,-0.0010681152,-0.004257202
1579011926489,-0.0021362305,-0.0010681152,-0.004257202
1579011926495,-0.003189087,0.0,-0.004257202
1579011926499,-0.0021362305,-0.0021362305,-0.004257202
1579011926504,-0.0010681152,-0.003189087,-0.0063934326
1579011926510,-0.0010681152,-0.0021362305,-0.0053253174
1579011926515,-0.0010681152,-0.0021362305,-0.0053253174
1579011926519,0.0,-0.0021362305,-0.0063934326
1579011926524,-0.0021362305,-0.0021362305,-0.0053253174
1579011926529,-0.003189087,-0.004257202,-0.004257202
1579011926535,-0.0010681152,-0.0021362305,-0.0053253174
1579011926539,-0.0021362305,-0.0021362305,-0.004257202
1579011926545,-0.0021362305,0.0,-0.003189087
1579011926549,-0.0021362305,-0.0010681152,-0.004257202
1579011926556,-0.0021362305,-0.003189087,-0.004257202
1579011926560,-0.003189087,-0.0021362305,-0.0053253174
1579011926566,-0.0021362305,0.0,-0.004257202
1579011926571,-0.003189087,-0.0010681152,-0.004257202
1579011926576,-0.0021362305,-0.0021362305,-0.0053253174
1579011926581,-0.0010681152,-0.0010681152,-0.0053253174
1579011926585,-0.0021362305,-0.0021362305,-0.0063934326
1579011926590,-0.003189087,-0.004257202,-0.0053253174
1579011926596,-0.003189087,-0.0021362305,-0.004257202
1579011926600,-0.004257202,0.0,-0.004257202
1579011926606,-0.0021362305,-0.0021362305,-0.0021362305
1579011926610,-0.003189087,-0.0021362305,-0.0010681152
1579011926616,-0.004257202,-0.0021362305,-0.003189087
1579011926620,-0.0021362305,-0.003189087,-0.0063934326
1579011926625,-0.003189087,-0.0010681152,-0.003189087
1579011926632,-0.003189087,0.0,-0.003189087
1579011926637,-0.0010681152,-0.0010681152,-0.004257202
1579011926642,-0.003189087,-0.003189087,-0.004257202
1579011926647,-0.003189087,-0.0021362305,-0.0053253174
1579011926651,-0.0021362305,-0.0010681152,-0.004257202
1579011926657,-0.003189087,-0.003189087,-0.004257202
1579011926662,-0.003189087,-0.003189087,-0.0053253174
1579011926667,-0.003189087,-0.003189087,-0.003189087
1579011926671,-0.004257202,-0.0021362305,-0.004257202
1579011926677,-0.0053253174,-0.0021362305,-0.004257202
1579011926681,-0.0021362305,-0.0021362305,-0.003189087
1579011926686,-0.003189087,-0.003189087,-0.0053253174
1579011926691,-0.0021362305,-0.0021362305,-0.0021362305
1579011926696,-0.004257202,-0.0021362305,-0.003189087
1579011926703,-0.004257202,-0.0021362305,-0.003189087
1579011926707,-0.0021362305,-0.003189087,-0.003189087
1579011926713,-0.0010681152,-0.0021362305,-0.0053253174
1579011926718,-0.0010681152,-0.0021362305,-0.0053253174
1579011926723,-0.0010681152,-0.003189087,-0.004257202
1579011926727,-0.003189087,-0.0021362305,-0.0053253174
1579011926733,-0.003189087,-0.0010681152,-0.0053253174
1579011926738,-0.0053253174,-0.0010681152,-0.004257202
1579011926743,-0.0021362305,-0.0021362305,-0.004257202
1579011926747,-0.0021362305,-0.0021362305,-0.0053253174
1579011926752,0.0,-0.0021362305,-0.003189087
1579011926757,-0.003189087,-0.0021362305,-0.0053253174
1579011926762,-0.003189087,-0.0021362305,-0.0053253174
1579011926767,-0.003189087,-0.0021362305,-0.0063934326
1579011926773,-0.004257202,0.0010681152,-0.003189087
1579011926779,-0.0021362305,-0.0010681152,-0.003189087
1579011926784,-0.0021362305,-0.0021362305,-0.004257202
1579011926788,-0.003189087,-0.0010681152,-0.004257202
1579011926793,-0.004257202,-0.0010681152,-0.0053253174
1579011926798,-0.004257202,-0.0010681152,-0.003189087
1579011926804,-0.003189087,-0.0021362305,-0.003189087
1579011926808,-0.0010681152,-0.0010681152,-0.003189087
1579011926814,-0.0021362305,-0.0021362305,-0.004257202
1579011926818,-0.004257202,-0.0010681152,-0.004257202
1579011926824,-0.0010681152,-0.0010681152,-0.004257202
1579011926829,-0.0010681152,-0.0021362305,-0.003189087
1579011926834,-0.004257202,-0.003189087,-0.003189087
1579011926838,-0.003189087,-0.0010681152,-0.003189087
1579011926844,-0.004257202,-0.003189087,-0.0053253174
1579011926850,-0.0021362305,-0.0010681152,-0.0063934326
1579011926854,-0.0010681152,0.0,-0.0053253174
1579011926859,-0.003189087,-0.0021362305,-0.0053253174
1579011926865,-0.004257202,-0.003189087,-0.003189087
1579011926870,-0.003189087,-0.0010681152,-0.004257202
1579011926874,-0.004257202,-0.0010681152,-0.0053253174
1579011926880,-0.004257202,-0.004257202,-0.0021362305
1579011926885,-0.0021362305,-0.0021362305,-0.003189087
1579011926889,-0.003189087,-0.0010681152,-0.004257202
1579011926894,-0.003189087,-0.0021362305,-0.004257202
1579011926900,-0.0010681152,-0.003189087,-0.004257202
1579011926905,-0.003189087,-0.003189087,-0.003189087
1579011926910,-0.0021362305,-0.0021362305,-0.0053253174
1579011926914,-0.003189087,-0.0021362305,-0.0063934326
1579011926921,-0.0010681152,-0.0021362305,-0.0063934326
1579011926926,-0.0010681152,-0.0010681152,-0.004257202
1579011926931,-0.0021362305,-0.0021362305,-0.004257202
1579011926936,-0.0021362305,-0.0010681152,-0.003189087
1579011926940,-0.004257202,-0.003189087,-0.0021362305
1579011926946,-0.003189087,-0.003189087,-0.003189087
1579011926951,-0.003189087,-0.0021362305,-0.004257202
1579011926955,-0.003189087,-0.0021362305,-0.004257202
1579011926961,-0.0021362305,-0.0021362305,-0.0053253174
1579011926965,-0.003189087,-0.0021362305,-0.004257202
1579011926971,-0.003189087,-0.0021362305,-0.003189087
1579011926976,-0.003189087,0.0,-0.004257202
1579011926981,-0.0021362305,0.0,-0.004257202
1579011926986,-0.0010681152,-0.003189087,-0.003189087
1579011926991,-0.0021362305,-0.004257202,-0.0021362305
1579011926997,-0.003189087,-0.003189087,-0.004257202
1579011927001,-0.003189087,-0.0010681152,-0.007461548
1579011927007,-0.0010681152,-0.0010681152,-0.0053253174
1579011927012,-0.0021362305,-0.004257202,-0.003189087
1579011927017,-0.0021362305,-0.0010681152,-0.0021362305
1579011927022,-0.0021362305,-0.0010681152,-0.003189087
1579011927026,-0.003189087,-0.0021362305,-0.003189087
1579011927032,-0.004257202,0.0,-0.003189087
1579011927037,-0.003189087,0.0,-0.0053253174
1579011927041,-0.0010681152,0.0,-0.003189087
1579011927046,-0.0021362305,-0.0021362305,-0.003189087
1579011927052,-0.0010681152,-0.0021362305,-0.004257202
1579011927056,-0.0010681152,-0.0010681152,-0.004257202
1579011927062,-0.0021362305,-0.0010681152,-0.0053253174
1579011927067,-0.0010681152,-0.003189087,-0.0063934326
1579011927073,-0.003189087,-0.0021362305,-0.0053253174
1579011927077,-0.0021362305,-0.0010681152,-0.004257202
1579011927082,-0.0021362305,-0.0010681152,-0.0063934326
1579011927088,-0.0021362305,0.0,-0.0053253174
1579011927092,-0.003189087,-0.0010681152,-0.0053253174
1579011927098,-0.0021362305,-0.0010681152,-0.003189087
1579011927102,-0.003189087,-0.0010681152,-0.0053253174
1579011927108,-0.003189087,-0.0010681152,-0.0053253174
1579011927113,-0.0021362305,-0.0010681152,-0.0053253174
1579011927118,0.0,-0.003189087,-0.0053253174
1579011927123,-0.003189087,-0.0021362305,-0.004257202
1579011927128,-0.0053253174,-0.0021362305,-0.003189087
1579011927132,-0.0053253174,-0.0021362305,-0.004257202
1579011927139,-0.0021362305,-0.003189087,-0.004257202
1579011927144,-0.0010681152,-0.003189087,-0.004257202
1579011927149,-0.0010681152,-0.0010681152,-0.0053253174
1579011927153,-0.003189087,-0.0021362305,-0.0063934326
1579011927159,-0.004257202,-0.003189087,-0.0053253174
1579011927164,-0.0021362305,-0.0021362305,-0.003189087
1579011927169,-0.0021362305,-0.0021362305,-0.004257202
1579011927174,-0.004257202,-0.004257202,-0.004257202
1579011927179,-0.0021362305,-0.0021362305,-0.004257202
1579011927184,-0.0010681152,-0.0021362305,-0.0063934326
1579011927189,-0.003189087,-0.003189087,-0.0053253174
1579011927194,-0.004257202,-0.0010681152,-0.003189087
1579011927199,-0.003189087,-0.0010681152,-0.004257202
1579011927203,-0.0010681152,-0.003189087,-0.004257202
1579011927210,-0.0021362305,-0.0010681152,-0.004257202
1579011927215,-0.003189087,0.0,-0.0053253174
1579011927219,-0.003189087,-0.0021362305,-0.003189087
1579011927225,-0.004257202,-0.0021362305,-0.003189087
1579011927229,-0.0021362305,-0.003189087,-0.004257202
1579011927234,-0.0021362305,-0.0021362305,-0.004257202
1579011927240,-0.003189087,-0.0021362305,-0.003189087
1579011927245,-0.0021362305,-0.003189087,-0.003189087
1579011927250,-0.0021362305,-0.0021362305,-0.004257202
1579011927255,-0.004257202,-0.0010681152,-0.004257202
1579011927260,-0.004257202,-0.0021362305,-0.0021362305
1579011927265,-0.003189087,-0.0010681152,-0.004257202
1579011927269,-0.004257202,-0.0010681152,-0.004257202
1579011927275,-0.003189087,-0.0010681152,-0.004257202
1579011927280,-0.0010681152,-0.0010681152,-0.0053253174
1579011927286,-0.0010681152,-0.0021362305,-0.004257202
1579011927290,-0.004257202,-0.0010681152,-0.0021362305
1579011927295,-0.003189087,-0.0010681152,-0.003189087
1579011927301,-0.0053253174,-0.0021362305,-0.0063934326
1579011927306,-0.003189087,-0.0021362305,-0.004257202
1579011927311,-0.0021362305,-0.0021362305,-0.004257202
1579011927315,-0.003189087,-0.0021362305,-0.0063934326
1579011927321,-0.0021362305,-0.003189087,-0.0053253174
1579011927326,-0.0021362305,-0.0021362305,-0.0063934326
1579011927331,-0.0010681152,-0.004257202,-0.004257202
1579011927336,-0.0010681152,-0.0021362305,-0.004257202
1579011927340,-0.004257202,-0.0021362305,-0.003189087
1579011927346,-0.003189087,-0.0021362305,-0.004257202
1579011927351,-0.0010681152,-0.0010681152,-0.004257202
1579011927356,-0.003189087,0.0010681152,-0.0063934326
1579011927362,-0.004257202,0.0,-0.004257202
1579011927366,-0.0010681152,0.0,-0.0053253174
1579011927372,-0.004257202,-0.0010681152,-0.004257202
1579011927376,-0.0053253174,-0.0010681152,-0.003189087
1579011927381,-0.0021362305,-0.0021362305,-0.004257202
1579011927387,-0.0010681152,-0.0010681152,-0.004257202
1579011927391,-0.0021362305,-0.0010681152,-0.004257202
1579011927397,-0.003189087,-0.0010681152,-0.004257202
1579011927401,-0.0021362305,-0.003189087,-0.003189087
1579011927406,-0.0021362305,-0.0010681152,-0.0021362305
1579011927412,-0.003189087,-0.003189087,-0.004257202
1579011927417,-0.003189087,-0.003189087,-0.0053253174
1579011927422,-0.004257202,-0.0010681152,-0.004257202
1579011927428,-0.003189087,-0.0021362305,-0.003189087
1579011927432,-0.0021362305,-0.0021362305,-0.004257202
1579011927438,-0.0021362305,-0.0010681152,-0.0053253174
1579011927443,-0.0021362305,-0.003189087,-0.003189087
1579011927448,-0.004257202,-0.003189087,-0.003189087
1579011927453,-0.004257202,-0.0021362305,-0.004257202
1579011927458,-0.003189087,-0.0010681152,-0.003189087
1579011927462,0.0010681152,0.0,-0.0021362305
1579011927468,0.0,-0.0021362305,-0.004257202
1579011927472,0.0,-0.0021362305,-0.003189087
1579011927478,-0.0010681152,-0.0021362305,-0.0021362305
1579011927483,-0.0021362305,-0.0021362305,-0.004257202
1579011927488,-0.003189087,-0.0021362305,-0.004257202
1579011927492,-0.004257202,-0.003189087,-0.004257202
1579011927499,-0.003189087,-0.0021362305,-0.0063934326
1579011927504,-0.003189087,0.0,-0.004257202
1579011927509,-0.003189087,-0.0010681152,-0.003189087
1579011927514,-0.0010681152,-0.0010681152,-0.004257202
1579011927519,-0.003189087,-0.0021362305,-0.0053253174
1579011927524,-0.003189087,-0.0010681152,-0.003189087
1579011927528,-0.003189087,-0.0010681152,-0.003189087
1579011927534,-0.003189087,-0.003189087,-0.003189087
1579011927539,-0.003189087,-0.0021362305,-0.004257202
1579011927544,-0.0021362305,-0.0010681152,-0.004257202
1579011927549,-0.003189087,-0.0021362305,-0.004257202
1579011927554,-0.0021362305,-0.0021362305,-0.004257202
1579011927559,-0.0021362305,-0.003189087,-0.0053253174
1579011927563,-0.004257202,-0.0021362305,-0.004257202
1579011927568,-0.003189087,-0.0010681152,-0.004257202
1579011927574,-0.0021362305,-0.0010681152,-0.003189087
1579011927580,-0.0021362305,-0.0021362305,-0.004257202
1579011927585,-0.003189087,-0.003189087,-0.0063934326
1579011927589,-0.003189087,-0.003189087,-0.0063934326
1579011927595,-0.003189087,-0.0021362305,-0.003189087
1579011927600,-0.0053253174,-0.0010681152,-0.0021362305
1579011927605,-0.003189087,-0.0021362305,-0.003189087
1579011927609,-0.0021362305,-0.0010681152,-0.004257202
1579011927614,-0.0021362305,-0.0010681152,-0.004257202
1579011927620,-0.003189087,-0.0021362305,-0.003189087
1579011927625,-0.0021362305,0.0,-0.0053253174
1579011927630,-0.0021362305,-0.0021362305,-0.004257202
1579011927635,-0.003189087,-0.003189087,-0.003189087
1579011927639,-0.0010681152,-0.003189087,-0.004257202
1579011927645,-0.0021362305,-0.003189087,-0.004257202
1579011927651,-0.004257202,-0.0010681152,-0.003189087
1579011927656,-0.0021362305,-0.0021362305,-0.003189087
1579011927661,-0.004257202,-0.0021362305,-0.003189087
1579011927666,-0.0021362305,-0.0021362305,-0.004257202
1579011927671,-0.0021362305,-0.0010681152,-0.004257202
1579011927676,-0.003189087,-0.0021362305,-0.0063934326
1579011927681,-0.0010681152,-0.0021362305,-0.004257202
1579011927685,0.0,-0.0010681152,-0.0063934326
1579011927690,-0.0021362305,-0.0010681152,-0.004257202
1579011927695,-0.0021362305,-0.0021362305,-0.003189087
1579011927700,-0.003189087,-0.0021362305,-0.003189087
1579011927706,-0.0010681152,-0.0021362305,-0.004257202
1579011927711,-0.003189087,-0.0010681152,-0.0053253174
1579011927716,-0.0021362305,-0.0021362305,-0.003189087
1579011927722,-0.003189087,-0.0021362305,-0.003189087
1579011927727,-0.003189087,-0.0021362305,-0.0053253174
1579011927732,-0.004257202,-0.0010681152,-0.0053253174
1579011927737,-0.004257202,-0.003189087,-0.0063934326
1579011927742,-0.0021362305,-0.004257202,-0.0053253174
1579011927747,-0.0010681152,-0.003189087,-0.003189087
1579011927752,-0.003189087,-0.0010681152,-0.003189087
1579011927756,-0.0053253174,-0.0010681152,-0.0063934326
1579011927762,-0.0021362305,-0.003189087,-0.004257202
1579011927767,-0.0010681152,-0.003189087,-0.004257202
1579011927771,-0.0021362305,-0.003189087,-0.004257202
1579011927777,-0.003189087,-0.0010681152,-0.004257202
1579011927782,-0.0021362305,-0.0010681152,-0.004257202
1579011927787,-0.0021362305,0.0,-0.004257202
1579011927793,-0.003189087,0.0,-0.004257202
1579011927798,-0.003189087,-0.0010681152,-0.0053253174
1579011927803,-0.0021362305,-0.0021362305,-0.0053253174
1579011927808,-0.0021362305,-0.003189087,-0.004257202
1579011927813,-0.003189087,-0.004257202,-0.003189087
1579011927817,-0.0021362305,-0.0021362305,-0.004257202
1579011927822,-0.003189087,-0.0010681152,-0.004257202
1579011927827,-0.003189087,-0.003189087,-0.004257202
1579011927832,-0.003189087,-0.0021362305,-0.004257202
1579011927837,-0.0021362305,-0.0010681152,-0.0021362305
1579011927842,-0.004257202,0.0,-0.003189087
1579011927847,-0.0021362305,-0.0010681152,-0.004257202
1579011927853,-0.004257202,-0.0021362305,-0.004257202
1579011927858,-0.003189087,-0.0021362305,-0.004257202
1579011927863,-0.0010681152,-0.0021362305,-0.003189087
1579011927868,-0.003189087,-0.0010681152,-0.004257202
1579011927873,-0.0053253174,-0.0010681152,-0.0053253174
1579011927878,-0.004257202,-0.003189087,-0.003189087
1579011927883,-0.0021362305,-0.003189087,-0.004257202
1579011927889,-0.003189087,-0.0021362305,-0.0053253174
1579011927894,-0.003189087,-0.003189087,-0.003189087
1579011927899,-0.004257202,-0.0021362305,-0.0021362305
1579011927903,-0.004257202,-0.0021362305,-0.004257202
1579011927909,-0.003189087,-0.0021362305,-0.0063934326
1579011927913,-0.0010681152,-0.0010681152,-0.003189087
1579011927918,-0.0021362305,-0.0021362305,-0.004257202
1579011927924,-0.004257202,-0.0021362305,-0.003189087
1579011927928,-0.0053253174,-0.003189087,-0.003189087
1579011927934,-0.004257202,-0.0010681152,-0.003189087
1579011927939,-0.003189087,-0.0010681152,-0.003189087
1579011927945,-0.003189087,0.0,-0.004257202
1579011927950,-0.0021362305,-0.0010681152,-0.0053253174
1579011927955,-0.0021362305,-0.003189087,-0.004257202
1579011927960,-0.004257202,-0.0010681152,-0.003189087
1579011927965,0.0,-0.003189087,-0.007461548
1579011927970,-0.003189087,-0.0021362305,-0.0063934326
1579011927975,-0.0053253174,-0.0010681152,-0.004257202
1579011927979,-0.003189087,0.0,-0.003189087
1579011927985,-0.0021362305,-0.0010681152,-0.0063934326
1579011927990,-0.0021362305,-0.0010681152,-0.004257202
1579011927995,-0.003189087,-0.003189087,-0.003189087
1579011928000,-0.0021362305,-0.0021362305,-0.003189087
1579011928004,-0.003189087,-0.0010681152,-0.004257202
1579011928010,-0.004257202,-0.003189087,-0.0053253174
1579011928015,-0.0021362305,-0.0021362305,-0.0063934326
1579011928021,-0.0010681152,-0.0010681152,-0.003189087
1579011928026,-0.004257202,-0.0010681152,-0.0021362305
1579011928031,-0.003189087,-0.0010681152,-0.003189087
1579011928036,-0.0010681152,-0.0021362305,-0.0053253174
1579011928041,-0.0021362305,-0.0010681152,-0.0053253174
1579011928046,-0.003189087,-0.0010681152,-0.003189087
1579011928051,-0.0021362305,-0.0010681152,-0.003189087
1579011928055,-0.003189087,-0.0010681152,-0.004257202
1579011928061,-0.0021362305,-0.0021362305,-0.004257202
1579011928066,-0.0021362305,-0.003189087,-0.004257202
1579011928070,-0.003189087,-0.0021362305,-0.004257202
1579011928075,-0.004257202,-0.0010681152,-0.0053253174
1579011928082,-0.003189087,0.0,-0.003189087
1579011928087,-0.004257202,-0.0021362305,-0.004257202
1579011928092,-0.004257202,-0.0010681152,-0.0053253174
1579011928096,-0.003189087,-0.0021362305,-0.003189087
1579011928102,-0.004257202,-0.0010681152,-0.004257202
1579011928107,-0.003189087,-0.0010681152,-0.0053253174
1579011928112,-0.003189087,-0.0010681152,-0.0053253174
1579011928117,-0.0021362305,-0.003189087,-0.003189087
1579011928122,-0.003189087,-0.0021362305,-0.004257202
1579011928126,-0.003189087,-0.003189087,-0.003189087
1579011928131,-0.003189087,-0.0021362305,-0.004257202
1579011928136,-0.0021362305,-0.0010681152,-0.004257202
1579011928142,-0.004257202,-0.0021362305,-0.003189087
1579011928147,-0.003189087,-0.003189087,-0.003189087
1579011928152,-0.0021362305,-0.003189087,-0.004257202
1579011928158,-0.0021362305,-0.0021362305,-0.0063934326
1579011928162,-0.004257202,-0.0010681152,-0.004257202
1579011928168,-0.004257202,-0.003189087,-0.004257202
1579011928173,-0.0021362305,-0.0010681152,-0.0053253174
1579011928177,-0.003189087,-0.003189087,-0.004257202
1579011928182,-0.0021362305,-0.0021362305,-0.0053253174
1579011928188,-0.003189087,-0.003189087,-0.0053253174
1579011928192,-0.003189087,-0.004257202,-0.003189087
1579011928197,-0.0021362305,-0.0021362305,-0.0053253174
1579011928203,-0.003189087,-0.0021362305,-0.004257202
1579011928208,-0.004257202,-0.0021362305,-0.003189087
1579011928213,-0.004257202,-0.0021362305,-0.004257202
1579011928218,-0.0021362305,-0.0021362305,-0.003189087
1579011928222,-0.0021362305,-0.0010681152,-0.004257202
1579011928229,-0.003189087,-0.0010681152,-0.003189087
1579011928234,-0.0021362305,-0.0021362305,-0.003189087
1579011928239,-0.003189087,-0.0010681152,-0.003189087
1579011928244,-0.0021362305,-0.0010681152,-0.0021362305
1579011928249,-0.003189087,-0.003189087,-0.0021362305
1579011928254,-0.003189087,-0.003189087,-0.0021362305
1579011928259,-0.003189087,-0.0010681152,-0.003189087
1579011928264,-0.0010681152,0.0,-0.0053253174
1579011928269,-0.0021362305,-0.0010681152,-0.004257202
1579011928274,-0.0021362305,0.0,-0.003189087
1579011928279,-0.0021362305,-0.0021362305,-0.0053253174
1579011928284,-0.003189087,-0.0021362305,-0.004257202
1579011928288,-0.004257202,-0.0021362305,-0.004257202
1579011928293,-0.003189087,-0.0010681152,-0.004257202
1579011928299,-0.0021362305,-0.0021362305,-0.0053253174
1579011928304,-0.0021362305,-0.0021362305,-0.003189087
1579011928310,-0.0021362305,-0.0021362305,-0.003189087
1579011928315,-0.0010681152,-0.0021362305,-0.004257202
1579011928319,-0.0021362305,-0.0021362305,-0.0053253174
1579011928324,-0.0021362305,-0.0021362305,-0.004257202
1579011928329,-0.003189087,-0.003189087,-0.0021362305
1579011928335,-0.0053253174,-0.003189087,-0.004257202
1579011928340,-0.004257202,-0.0021362305,-0.0053253174
1579011928345,-0.004257202,-0.0010681152,-0.0053253174
1579011928349,-0.003189087,0.0,-0.0063934326
1579011928354,-0.0021362305,0.0,-0.0053253174
1579011928360,-0.003189087,-0.0010681152,-0.003189087
1579011928365,-0.004257202,-0.0010681152,-0.004257202
1579011928370,-0.003189087,-0.0021362305,-0.004257202
1579011928376,-0.003189087,-0.0010681152,-0.0063934326
1579011928381,-0.0021362305,-0.0010681152,-0.0053253174
1579011928386,-0.003189087,0.0,-0.0053253174
1579011928390,-0.004257202,-0.0021362305,-0.0063934326
1579011928396,-0.0021362305,-0.0010681152,-0.0053253174
1579011928401,-0.0021362305,-0.0010681152,-0.004257202
1579011928405,-0.003189087,-0.0021362305,-0.004257202
1579011928410,-0.0021362305,-0.0021362305,-0.004257202
1579011928416,-0.003189087,-0.003189087,-0.0063934326
1579011928420,-0.0021362305,-0.0010681152,-0.0053253174
1579011928425,-0.004257202,-0.0010681152,-0.004257202
1579011928431,-0.0021362305,-0.0021362305,-0.003189087
1579011928435,-0.0021362305,-0.0021362305,-0.0063934326
1579011928440,-0.0010681152,-0.0021362305,-0.0053253174
1579011928447,-0.0021362305,-0.004257202,-0.004257202
1579011928452,-0.003189087,-0.0021362305,-0.004257202
1579011928457,-0.0021362305,-0.0021362305,-0.003189087
1579011928461,-0.003189087,-0.0021362305,-0.003189087
1579011928467,-0.0021362305,-0.0021362305,-0.004257202
1579011928472,-0.004257202,-0.0010681152,-0.004257202
1579011928476,-0.004257202,-0.0010681152,-0.0063934326
1579011928481,-0.004257202,-0.0010681152,-0.004257202
1579011928487,-0.003189087,-0.003189087,-0.004257202
1579011928492,-0.003189087,-0.0021362305,-0.004257202
1579011928497,-0.0021362305,-0.0010681152,-0.0021362305
1579011928502,-0.0021362305,-0.0010681152,-0.0053253174
1579011928506,-0.004257202,-0.004257202,-0.004257202
1579011928511,-0.003189087,0.0010681152,-0.003189087
1579011928518,-0.003189087,-0.0010681152,-0.004257202
1579011928522,-0.0021362305,-0.003189087,-0.0053253174
1579011928527,-0.003189087,-0.004257202,-0.003189087
1579011928533,-0.0021362305,-0.0021362305,-0.0053253174
1579011928537,-0.0021362305,-0.0010681152,-0.004257202
1579011928543,-0.003189087,-0.003189087,-0.0053253174
1579011928548,-0.003189087,-0.0021362305,-0.003189087
1579011928553,-0.0010681152,-0.0010681152,-0.004257202
1579011928558,-0.0010681152,-0.0021362305,-0.004257202
1579011928563,-0.003189087,-0.0021362305,-0.003189087
1579011928568,-0.004257202,-0.0010681152,-0.004257202
1579011928573,-0.003189087,-0.0021362305,-0.0053253174
1579011928577,-0.0010681152,-0.0010681152,-0.0063934326
1579011928582,-0.004257202,-0.0021362305,-0.0053253174
1579011928589,-0.003189087,-0.0010681152,-0.004257202
1579011928593,-0.0021362305,-0.0021362305,-0.003189087
1579011928598,-0.0010681152,-0.0010681152,-0.003189087
1579011928604,-0.0010681152,0.0,-0.004257202
1579011928609,-0.003189087,-0.0021362305,-0.0053253174
1579011928613,-0.003189087,-0.003189087,-0.0053253174
1579011928619,-0.0010681152,-0.0021362305,-0.004257202
1579011928624,-0.0010681152,-0.003189087,-0.0063934326
1579011928629,-0.0021362305,-0.0010681152,-0.0053253174
1579011928634,-0.004257202,-0.0021362305,-0.0021362305
1579011928638,-0.0021362305,-0.0021362305,-0.004257202
1579011928644,-0.0021362305,-0.0021362305,-0.004257202
1579011928649,-0.003189087,0.0,-0.004257202
1579011928653,-0.0010681152,-0.0021362305,-0.0053253174
1579011928658,-0.003189087,-0.0010681152,-0.003189087
1579011928665,-0.003189087,-0.0021362305,-0.004257202
1579011928670,-0.003189087,-0.0010681152,-0.003189087
1579011928674,0.0,-0.0021362305,-0.003189087
1579011928680,-0.003189087,-0.0010681152,-0.004257202
1579011928685,-0.0010681152,-0.0021362305,-0.0063934326
1579011928689,-0.0010681152,-0.0021362305,-0.004257202
1579011928694,-0.0021362305,-0.0021362305,-0.003189087
1579011928700,-0.003189087,-0.003189087,-0.004257202
1579011928704,-0.004257202,-0.003189087,-0.003189087
1579011928709,-0.003189087,-0.0010681152,-0.004257202
1579011928715,-0.003189087,-0.0021362305,-0.0053253174
1579011928719,-0.004257202,-0.003189087,-0.004257202
1579011928724,-0.003189087,-0.0021362305,-0.003189087
1579011928729,-0.0021362305,-0.003189087,-0.0021362305
1579011928735,-0.0021362305,-0.0021362305,-0.003189087
1579011928741,-0.004257202,-0.0010681152,-0.0021362305
1579011928745,-0.004257202,-0.0010681152,-0.003189087
1579011928751,-0.0021362305,-0.0021362305,-0.0053253174
1579011928755,-0.0010681152,0.0,-0.003189087
1579011928761,-0.0010681152,-0.0010681152,-0.0053253174
1579011928766,-0.0021362305,-0.003189087,-0.0021362305
1579011928771,-0.0021362305,-0.0010681152,-0.003189087
1579011928775,-0.0021362305,-0.0010681152,-0.004257202
1579011928781,-0.003189087,-0.003189087,-0.004257202
1579011928785,-0.0021362305,-0.0021362305,-0.004257202
1579011928791,-0.003189087,0.0,-0.004257202
1579011928795,-0.0021362305,-0.0010681152,-0.0053253174
1579011928801,-0.0010681152,-0.0021362305,-0.0053253174
1579011928806,-0.003189087,-0.0021362305,-0.004257202
1579011928812,-0.0021362305,-0.0010681152,-0.0053253174
1579011928817,-0.0021362305,-0.0010681152,-0.004257202
1579011928822,-0.0021362305,0.0,-0.0053253174
1579011928827,-0.004257202,-0.0021362305,-0.0053253174
1579011928832,-0.0021362305,-0.0010681152,-0.004257202
1579011928837,-0.0021362305,-0.003189087,-0.003189087
1579011928841,-0.003189087,-0.003189087,-0.0053253174
1579011928847,-0.004257202,-0.003189087,-0.003189087
1579011928852,-0.0021362305,-0.0021362305,-0.003189087
1579011928857,-0.0021362305,-0.003189087,-0.004257202
1579011928862,-0.0021362305,-0.003189087,-0.004257202
1579011928866,-0.0021362305,-0.0021362305,-0.004257202
1579011928871,-0.004257202,-0.0010681152,-0.004257202
1579011928877,-0.0021362305,-0.0010681152,-0.0063934326
1579011928883,-0.0010681152,-0.004257202,-0.0021362305
1579011928887,-0.0010681152,-0.003189087,-0.003189087
1579011928893,-0.0021362305,-0.0010681152,-0.0053253174
1579011928898,-0.0021362305,-0.0021362305,-0.004257202
1579011928903,-0.0010681152,-0.003189087,-0.0063934326
1579011928908,-0.0010681152,-0.0021362305,-0.0063934326
1579011928912,-0.0021362305,-0.0010681152,-0.0053253174
1579011928918,-0.0021362305,-0.0010681152,-0.0053253174
1579011928923,-0.003189087,-0.0010681152,-0.0053253174
1579011928928,-0.0021362305,-0.003189087,-0.0053253174
1579011928933,-0.003189087,-0.0010681152,-0.0053253174
1579011928938,-0.0021362305,-0.0010681152,-0.004257202
1579011928943,-0.0053253174,-0.0021362305,-0.0053253174
1579011928947,-0.0063934326,-0.0010681152,-0.004257202
1579011928954,-0.0021362305,-0.003189087,-0.004257202
1579011928959,-0.0010681152,-0.003189087,-0.004257202
1579011928964,-0.0021362305,-0.0021362305,-0.004257202
1579011928969,-0.0053253174,-0.0021362305,-0.003189087
1579011928974,-0.003189087,0.0,-0.003189087
1579011928979,-0.0021362305,-0.0010681152,-0.003189087
1579011928984,-0.003189087,-0.0021362305,-0.0063934326
1579011928989,-0.004257202,-0.0010681152,-0.004257202
1579011928994,-0.003189087,-0.0010681152,-0.003189087
1579011928998,-0.0010681152,-0.0021362305,-0.003189087
1579011929004,-0.0021362305,-0.0021362305,-0.004257202
1579011929009,-0.0021362305,-0.0021362305,-0.0063934326
1579011929014,-0.0063934326,-0.003189087,-0.0053253174
1579011929019,-0.0053253174,-0.0010681152,-0.0053253174
1579011929025,-0.0010681152,-0.0010681152,-0.0053253174
1579011929030,-0.0010681152,-0.0021362305,-0.004257202
1579011929034,-0.0021362305,0.0,-0.003189087
1579011929039,-0.0021362305,-0.0010681152,-0.004257202
1579011929045,-0.0021362305,-0.003189087,-0.003189087
1579011929050,-0.0021362305,-0.003189087,-0.004257202
1579011929054,-0.0021362305,-0.0021362305,-0.003189087
1579011929060,-0.004257202,-0.0010681152,-0.003189087
1579011929065,-0.003189087,-0.0010681152,-0.0063934326
1579011929070,-0.0010681152,-0.0021362305,-0.004257202
1579011929075,-0.003189087,-0.0021362305,-0.004257202
1579011929080,-0.003189087,-0.0021362305,-0.004257202
1579011929085,-0.0010681152,-0.0021362305,-0.004257202
1579011929090,-0.003189087,-0.004257202,-0.004257202
1579011929095,-0.004257202,-0.0021362305,-0.004257202
1579011929101,-0.0021362305,-0.0021362305,-0.0053253174
1579011929106,-0.004257202,-0.003189087,-0.004257202
1579011929111,-0.0021362305,-0.0021362305,-0.003189087
1579011929115,-0.0010681152,-0.0021362305,-0.003189087
1579011929120,-0.0021362305,-0.0010681152,-0.004257202
1579011929125,-0.0010681152,-0.0021362305,-0.0053253174
1579011929131,-0.0010681152,-0.0021362305,-0.004257202
1579011929135,-0.003189087,-0.0010681152,-0.003189087
1579011929141,0.0,-0.003189087,-0.0053253174
1579011929146,-0.0021362305,-0.003189087,-0.003189087
1579011929151,-0.0053253174,-0.003189087,-0.003189087
1579011929156,-0.003189087,-0.0021362305,-0.004257202
1579011929161,-0.0021362305,-0.0010681152,-0.004257202
1579011929166,-0.004257202,-0.0010681152,-0.0053253174
1579011929170,-0.004257202,-0.0010681152,-0.004257202
1579011929177,-0.003189087,-0.0021362305,-0.004257202
1579011929181,-0.0021362305,-0.0021362305,-0.004257202
1579011929186,-0.003189087,-0.0021362305,-0.0053253174
1579011929191,-0.004257202,-0.0021362305,-0.0021362305
1579011929197,-0.003189087,0.0,-0.003189087
1579011929201,-0.0021362305,-0.0010681152,-0.0053253174
1579011929206,-0.0021362305,-0.0021362305,-0.004257202
1579011929211,-0.004257202,0.0,-0.0021362305
1579011929217,-0.003189087,-0.0010681152,-0.003189087
1579011929221,-0.003189087,-0.0010681152,-0.003189087
1579011929227,-0.003189087,-0.0010681152,-0.0053253174
1579011929231,-0.0021362305,-0.003189087,-0.0053253174
1579011929236,-0.003189087,-0.0010681152,-0.004257202
1579011929241,-0.004257202,-0.0021362305,-0.003189087
1579011929248,-0.0021362305,-0.003189087,-0.003189087
1579011929253,-0.003189087,-0.0021362305,-0.003189087
1579011929258,-0.0021362305,-0.0021362305,-0.0053253174
1579011929263,-0.003189087,-0.0021362305,-0.003189087
1579011929268,-0.004257202,0.0,-0.003189087
1579011929272,-0.0021362305,-0.0010681152,-0.004257202
1579011929277,-0.003189087,0.0,-0.0053253174
1579011929282,-0.004257202,-0.0010681152,-0.004257202
1579011929288,-0.003189087,-0.0010681152,-0.004257202
1579011929293,-0.003189087,-0.0010681152,-0.0053253174
1579011929298,-0.004257202,-0.0021362305,-0.0021362305
1579011929303,-0.003189087,-0.004257202,-0.003189087
1579011929308,-0.0021362305,-0.0021362305,-0.003189087
1579011929312,-0.003189087,0.0,-0.0053253174
1579011929318,-0.0021362305,-0.0021362305,-0.004257202
1579011929324,-0.004257202,-0.0021362305,-0.0053253174
1579011929329,-0.004257202,0.0,-0.004257202
1579011929334,-0.003189087,-0.0010681152,-0.0021362305
1579011929339,-0.0021362305,-0.0021362305,-0.0053253174
1579011929344,-0.0021362305,-0.0021362305,-0.0053253174
1579011929349,-0.004257202,-0.0010681152,-0.004257202
1579011929354,-0.003189087,0.0,-0.003189087
1579011929359,-0.003189087,-0.0021362305,-0.0053253174
1579011929363,-0.003189087,-0.0021362305,-0.004257202
1579011929368,-0.0053253174,-0.0021362305,-0.003189087
1579011929373,-0.0010681152,-0.0021362305,-0.0010681152
1579011929379,-0.0021362305,-0.0010681152,-0.003189087
1579011929384,-0.0021362305,-0.0021362305,-0.0063934326
1579011929389,-0.0021362305,-0.0021362305,-0.004257202
1579011929394,-0.004257202,-0.003189087,-0.004257202
1579011929399,-0.004257202,-0.0021362305,-0.003189087
1579011929404,-0.004257202,-0.004257202,-0.004257202
1579011929409,-0.004257202,-0.003189087,-0.003189087
1579011929414,-0.0021362305,0.0,-0.003189087
1579011929420,-0.0021362305,-0.0010681152,-0.004257202
1579011929425,-0.004257202,-0.003189087,-0.004257202
1579011929429,-0.003189087,-0.003189087,-0.0053253174
1579011929434,-0.003189087,-0.0010681152,-0.004257202
1579011929440,-0.004257202,-0.0021362305,-0.004257202
1579011929445,-0.004257202,-0.003189087,-0.003189087
1579011929449,-0.003189087,-0.003189087,-0.0053253174
1579011929455,-0.003189087,-0.0021362305,-0.0053253174
1579011929459,-0.0021362305,0.0,-0.003189087
1579011929466,-0.003189087,-0.0010681152,-0.003189087
1579011929471,-0.0021362305,-0.0021362305,-0.003189087
1579011929475,-0.004257202,-0.0010681152,-0.004257202
1579011929480,-0.0053253174,-0.003189087,-0.0063934326
1579011929486,-0.0021362305,-0.004257202,-0.004257202
1579011929491,-0.003189087,-0.003189087,-0.0053253174
1579011929495,-0.004257202,-0.0010681152,-0.0053253174
1579011929501,-0.004257202,-0.003189087,-0.0053253174
1579011929506,-0.004257202,-0.0021362305,-0.0053253174
1579011929511,-0.0010681152,-0.0021362305,-0.003189087
1579011929515,-0.003189087,-0.003189087,-0.0021362305
1579011929521,-0.0021362305,-0.0021362305,-0.004257202
1579011929526,-0.003189087,-0.0021362305,-0.004257202
1579011929531,-0.0021362305,-0.0021362305,-0.004257202
1579011929537,-0.0021362305,-0.0021362305,-0.0053253174
1579011929542,-0.003189087,-0.003189087,-0.003189087
1579011929547,-0.0021362305,-0.0010681152,-0.004257202
1579011929552,-0.003189087,-0.0010681152,-0.0053253174
1579011929557,-0.0021362305,-0.003189087,-0.0021362305
1579011929561,0.0010681152,-0.003189087,-0.0063934326
1579011929566,-0.0021362305,0.0,-0.0053253174
1579011929571,-0.003189087,-0.0021362305,-0.0053253174
1579011929577,-0.004257202,-0.003189087,-0.0053253174
1579011929582,-0.003189087,-0.0010681152,-0.003189087
1579011929587,-0.003189087,-0.004257202,-0.004257202
1579011929591,-0.003189087,-0.0021362305,-0.004257202
1579011929596,-0.003189087,-0.0010681152,-0.004257202
1579011929602,-0.004257202,-0.0021362305,-0.0053253174
1579011929607,-0.004257202,-0.003189087,-0.004257202
1579011929613,-0.0021362305,-0.0021362305,-0.003189087
1579011929618,-0.0021362305,-0.003189087,-0.004257202
1579011929623,-0.003189087,-0.0010681152,-0.004257202
1579011929628,-0.0021362305,-0.0010681152,-0.004257202
1579011929632,-0.0021362305,-0.003189087,-0.004257202
1579011929638,-0.0021362305,0.0,-0.003189087
1579011929643,-0.0021362305,0.0,-0.003189087
1579011929648,-0.0010681152,0.0,-0.0063934326
1579011929653,-0.0010681152,0.0,-0.007461548
1579011929657,-0.003189087,-0.0010681152,-0.0053253174
1579011929663,-0.004257202,-0.0021362305,-0.007461548
1579011929668,-0.003189087,-0.0010681152,-0.0053253174
1579011929673,-0.003189087,0.0,-0.003189087
1579011929678,-0.003189087,-0.0021362305,-0.004257202
1579011929684,-0.003189087,-0.0010681152,-0.004257202
1579011929688,-0.0021362305,-0.0021362305,-0.004257202
1579011929694,-0.0021362305,-0.0021362305,-0.0053253174
1579011929699,-0.003189087,-0.0010681152,-0.004257202
1579011929704,-0.003189087,-0.0010681152,-0.0053253174
1579011929709,-0.0053253174,-0.0010681152,-0.0053253174
1579011929714,-0.004257202,-0.0021362305,-0.003189087
1579011929718,-0.003189087,0.0,-0.003189087
1579011929724,-0.0021362305,-0.0021362305,-0.004257202
1579011929728,-0.0021362305,-0.003189087,-0.003189087
1579011929734,-0.0021362305,-0.0021362305,-0.003189087
1579011929738,-0.004257202,-0.0021362305,-0.004257202
1579011929744,-0.0010681152,-0.0021362305,-0.0053253174
1579011929749,-0.003189087,-0.0010681152,-0.004257202
1579011929755,-0.004257202,-0.0021362305,-0.004257202
1579011929760,-0.003189087,-0.0021362305,-0.004257202
1579011929764,-0.0010681152,-0.003189087,-0.004257202
1579011929770,-0.0021362305,-0.0021362305,-0.004257202
1579011929775,-0.0021362305,-0.0021362305,-0.004257202
1579011929780,-0.0021362305,-0.0021362305,-0.0053253174
1579011929785,-0.004257202,-0.0010681152,-0.004257202
1579011929789,-0.0010681152,-0.0010681152,-0.004257202
1579011929794,-0.0021362305,-0.0010681152,-0.004257202
1579011929799,-0.0021362305,-0.0021362305,-0.0053253174
1579011929804,-0.003189087,-0.0021362305,-0.0063934326
1579011929810,-0.004257202,-0.0010681152,-0.004257202
1579011929815,-0.0053253174,-0.003189087,-0.0021362305
1579011929820,-0.0021362305,-0.0021362305,-0.003189087
1579011929825,-0.0010681152,-0.0021362305,-0.0053253174
1579011929831,-0.003189087,-0.003189087,-0.004257202
1579011929836,-0.0010681152,-0.0021362305,-0.0053253174
1579011929840,-0.003189087,0.0010681152,-0.004257202
1579011929846,-0.003189087,-0.0010681152,-0.003189087
1579011929851,-0.0021362305,-0.0021362305,-0.004257202
1579011929855,-0.0021362305,-0.0010681152,-0.004257202
1579011929860,-0.003189087,-0.0021362305,-0.004257202
1579011929865,-0.004257202,-0.0021362305,-0.004257202
1579011929871,-0.0021362305,-0.0021362305,-0.003189087
1579011929875,-0.0021362305,-0.0010681152,-0.003189087
1579011929880,-0.0021362305,-0.0021362305,-0.003189087
1579011929885,-0.0021362305,-0.0021362305,-0.003189087
1579011929890,-0.0021362305,-0.0021362305,-0.003189087
1579011929896,-0.0010681152,-0.0021362305,-0.003189087
1579011929902,-0.003189087,-0.003189087,-0.0053253174
1579011929906,-0.0010681152,-0.0021362305,-0.0053253174
1579011929911,-0.0021362305,-0.0010681152,-0.004257202
1579011929917,0.0010681152,-0.0021362305,-0.004257202
1579011929921,-0.0010681152,0.0,-0.003189087
1579011929926,-0.0053253174,-0.0010681152,-0.003189087
1579011929932,-0.0021362305,-0.003189087,-0.0021362305
1579011929937,-0.0010681152,-0.0010681152,-0.0053253174
1579011929941,-0.004257202,-0.0021362305,-0.004257202
1579011929946,-0.003189087,-0.003189087,-0.003189087
1579011929952,-0.0010681152,-0.0010681152,-0.003189087
1579011929957,-0.003189087,0.0,-0.004257202
1579011929961,-0.0021362305,-0.003189087,-0.0021362305
1579011929966,-0.0010681152,-0.0010681152,-0.0021362305
1579011929973,-0.004257202,-0.0010681152,-0.0021362305
1579011929978,-0.004257202,-0.0021362305,-0.003189087
1579011929982,-0.004257202,-0.004257202,-0.004257202
1579011929988,-0.003189087,-0.0021362305,-0.0053253174
1579011929992,-0.003189087,-0.0021362305,-0.004257202
1579011929997,-0.004257202,-0.0010681152,-0.004257202
1579011930003,-0.003189087,-0.0021362305,-0.0053253174
1579011930008,-0.0010681152,-0.0021362305,-0.003189087
1579011930012,-0.0021362305,-0.003189087,-0.003189087
1579011930018,-0.0021362305,-0.0021362305,-0.0021362305
1579011930023,-0.0010681152,-0.003189087,-0.003189087
1579011930027,-0.004257202,-0.0021362305,-0.0063934326
1579011930032,-0.003189087,-0.0010681152,-0.0053253174
1579011930037,-0.003189087,-0.0021362305,-0.004257202
1579011930044,-0.003189087,-0.0021362305,-0.004257202
1579011930049,-0.003189087,-0.0010681152,-0.004257202
1579011930054,-0.0021362305,-0.0010681152,-0.003189087
1579011930059,-0.003189087,-0.003189087,-0.004257202
1579011930064,-0.003189087,-0.003189087,-0.003189087
1579011930068,-0.0010681152,-0.003189087,-0.003189087
1579011930074,-0.003189087,-0.0021362305,-0.004257202
1579011930079,-0.004257202,-0.003189087,-0.004257202
1579011930084,-0.0021362305,-0.003189087,-0.004257202
1579011930089,-0.0021362305,-0.0010681152,-0.0053253174
1579011930093,-0.003189087,-0.0021362305,-0.004257202
1579011930098,-0.003189087,-0.0021362305,-0.003189087
1579011930104,-0.0010681152,-0.0010681152,-0.003189087
1579011930109,-0.0021362305,-0.0021362305,-0.0053253174
1579011930114,-0.004257202,-0.0010681152,-0.0053253174
1579011930119,-0.0021362305,-0.0010681152,-0.0053253174
1579011930124,0.0,-0.003189087,-0.0053253174
1579011930129,-0.003189087,-0.0021362305,-0.0053253174
1579011930135,-0.003189087,-0.0021362305,-0.0053253174
1579011930139,-0.003189087,-0.004257202,-0.004257202
1579011930145,-0.0021362305,-0.0010681152,-0.003189087
1579011930150,-0.0021362305,-0.0010681152,-0.0053253174
1579011930155,-0.0010681152,-0.0021362305,-0.004257202
1579011930159,-0.0021362305,-0.0021362305,-0.004257202
1579011930165,-0.0021362305,-0.0021362305,-0.004257202
1579011930169,-0.0021362305,-0.0021362305,-0.004257202
1579011930175,-0.003189087,-0.003189087,-0.003189087
1579011930180,-0.0021362305,-0.0021362305,-0.0053253174
1579011930184,-0.0021362305,-0.003189087,-0.0063934326
1579011930190,-0.003189087,-0.0010681152,-0.003189087
1579011930195,-0.0021362305,-0.0021362305,-0.003189087
1579011930200,-0.003189087,-0.0010681152,-0.003189087
1579011930205,-0.0021362305,-0.0021362305,-0.003189087
1579011930211,-0.003189087,-0.0021362305,-0.004257202
1579011930216,-0.0021362305,-0.003189087,-0.003189087
1579011930220,-0.0021362305,-0.0021362305,-0.0021362305
1579011930226,-0.004257202,-0.003189087,-0.0053253174
1579011930231,-0.003189087,-0.003189087,-0.0053253174
1579011930236,-0.003189087,-0.0010681152,-0.0053253174
1579011930241,-0.003189087,-0.0010681152,-0.0053253174
1579011930246,-0.0010681152,-0.003189087,-0.004257202
1579011930251,-0.0021362305,-0.003189087,-0.004257202
1579011930256,-0.0053253174,-0.003189087,-0.004257202
1579011930261,-0.004257202,-0.0021362305,-0.004257202
1579011930267,-0.003189087,-0.0021362305,-0.0053253174
1579011930272,-0.003189087,-0.003189087,-0.004257202
1579011930277,-0.0021362305,-0.004257202,-0.004257202
1579011930282,-0.003189087,-0.0021362305,-0.0053253174
1579011930286,-0.003189087,-0.0021362305,-0.004257202
1579011930292,-0.0021362305,-0.0010681152,-0.003189087
1579011930297,-0.003189087,-0.0010681152,-0.004257202
1579011930301,-0.0021362305,-0.0021362305,-0.003189087
1579011930307,-0.0010681152,-0.004257202,-0.0053253174
1579011930312,-0.004257202,-0.0010681152,-0.004257202
1579011930316,-0.003189087,-0.0021362305,-0.003189087
1579011930322,-0.003189087,-0.003189087,-0.003189087
1579011930327,-0.003189087,-0.0021362305,-0.003189087
1579011930331,-0.0021362305,-0.003189087,-0.004257202
1579011930338,-0.004257202,-0.0021362305,-0.004257202
1579011930343,-0.003189087,-0.0021362305,-0.0053253174
1579011930348,-0.0021362305,-0.0021362305,-0.0053253174
1579011930353,-0.004257202,-0.0010681152,-0.003189087
1579011930357,-0.004257202,-0.0010681152,-0.003189087
1579011930362,-0.0053253174,-0.0021362305,-0.004257202
1579011930368,-0.003189087,-0.003189087,-0.0021362305
1579011930372,-0.004257202,-0.003189087,-0.003189087
1579011930378,-0.004257202,-0.003189087,-0.0053253174
1579011930382,-0.0021362305,-0.003189087,-0.004257202
1579011930387,-0.003189087,-0.0021362305,-0.0053253174
1579011930393,-0.004257202,-0.0010681152,-0.0063934326
1579011930397,-0.0021362305,-0.0010681152,-0.004257202
1579011930403,-0.0021362305,-0.0021362305,-0.004257202
1579011930409,-0.003189087,-0.003189087,-0.003189087
1579011930414,-0.004257202,-0.003189087,-0.004257202
1579011930418,-0.0053253174,-0.0021362305,-0.0063934326
1579011930424,-0.003189087,-0.0021362305,-0.0053253174
1579011930429,-0.003189087,-0.003189087,-0.004257202
1579011930434,-0.0053253174,-0.003189087,-0.0063934326
1579011930439,-0.003189087,-0.0021362305,-0.0053253174
1579011930443,-0.003189087,-0.0010681152,-0.004257202
1579011930448,-0.003189087,-0.0010681152,-0.004257202
1579011930454,-0.004257202,0.0,-0.004257202
1579011930458,-0.003189087,-0.0021362305,-0.004257202
1579011930463,-0.003189087,-0.0021362305,-0.004257202
1579011930469,-0.004257202,-0.0021362305,-0.004257202
1579011930474,-0.003189087,-0.0010681152,-0.004257202
1579011930479,-0.003189087,0.0010681152,-0.0053253174
1579011930484,-0.003189087,-0.0021362305,-0.003189087
1579011930490,-0.0021362305,-0.0021362305,-0.003189087
1579011930494,-0.004257202,-0.0010681152,-0.004257202
1579011930499,-0.004257202,-0.0021362305,-0.003189087
1579011930504,0.0010681152,-0.003189087,-0.004257202
1579011930509,-0.0021362305,-0.0021362305,-0.0021362305
1579011930514,-0.003189087,-0.0021362305,-0.0053253174
1579011930520,-0.0010681152,-0.003189087,-0.0063934326
1579011930525,-0.0021362305,-0.003189087,-0.003189087
1579011930530,-0.0010681152,-0.0010681152,-0.003189087
1579011930535,-0.003189087,0.0,-0.0053253174
1579011930540,-0.004257202,-0.0021362305,-0.004257202
1579011930544,-0.0021362305,-0.0021362305,-0.004257202
1579011930550,-0.003189087,-0.0021362305,-0.004257202
1579011930556,-0.0010681152,0.0,-0.004257202
1579011930561,-0.004257202,-0.0010681152,-0.004257202
1579011930566,-0.0053253174,-0.0021362305,-0.004257202
1579011930571,-0.003189087,-0.003189087,-0.003189087
1579011930576,-0.004257202,-0.0021362305,-0.004257202
1579011930581,-0.003189087,-0.0010681152,-0.004257202
1579011930586,-0.0021362305,-0.0021362305,-0.004257202
1579011930591,-0.0021362305,-0.0021362305,-0.0053253174
1579011930595,-0.0010681152,-0.0010681152,-0.004257202
1579011930601,-0.003189087,-0.0021362305,-0.0053253174
1579011930605,-0.0021362305,-0.0010681152,-0.0053253174
1579011930610,0.0,-0.0010681152,-0.0053253174
1579011930616,-0.0021362305,0.0010681152,-0.0053253174
1579011930620,-0.003189087,-0.0021362305,-0.004257202
1579011930626,-0.0010681152,-0.0010681152,-0.004257202
1579011930632,-0.0021362305,-0.0021362305,-0.0053253174
1579011930636,-0.0021362305,-0.0010681152,-0.003189087
1579011930641,-0.0021362305,-0.0010681152,-0.003189087
1579011930646,-0.003189087,-0.0021362305,-0.003189087
1579011930652,-0.0021362305,-0.0021362305,-0.003189087
1579011930656,-0.0021362305,-0.0021362305,-0.004257202
1579011930662,-0.004257202,-0.0021362305,-0.0053253174
1579011930666,-0.0021362305,-0.0021362305,-0.004257202
1579011930671,-0.0021362305,-0.003189087,-0.004257202
1579011930677,-0.003189087,-0.0010681152,-0.004257202
1579011930682,-0.004257202,-0.003189087,-0.0053253174
1579011930686,-0.003189087,-0.003189087,-0.0053253174
1579011930692,-0.004257202,-0.003189087,-0.0053253174
1579011930697,-0.003189087,-0.0021362305,-0.004257202
1579011930703,-0.004257202,-0.0021362305,-0.003189087
1579011930707,-0.004257202,0.0,-0.004257202
1579011930712,-0.004257202,-0.004257202,-0.003189087
1579011930717,-0.003189087,0.0,-0.0053253174
1579011930723,-0.003189087,-0.0010681152,-0.0053253174
1579011930728,-0.0010681152,-0.0063934326,-0.0053253174
1579011930732,-0.0021362305,-0.0021362305,-0.003189087
1579011930738,-0.0021362305,-0.0010681152,-0.0053253174
1579011930742,-0.0021362305,-0.0021362305,-0.0053253174
1579011930747,-0.0010681152,-0.003189087,-0.0053253174
1579011930753,-0.0021362305,-0.004257202,-0.0063934326
1579011930757,-0.0021362305,-0.0010681152,-0.0053253174
1579011930763,-0.003189087,-0.0021362305,-0.0063934326
1579011930768,-0.003189087,-0.0021362305,-0.0053253174
1579011930774,-0.0010681152,-0.003189087,-0.0053253174
1579011930778,-0.004257202,-0.003189087,-0.003189087
1579011930784,-0.0021362305,-0.0010681152,-0.003189087
1579011930788,-0.003189087,-0.0010681152,-0.0053253174
1579011930793,-0.0021362305,-0.0021362305,-0.004257202
1579011930799,-0.0021362305,-0.0021362305,-0.004257202
1579011930804,-0.004257202,-0.004257202,-0.004257202
1579011930808,-0.0021362305,-0.0021362305,-0.004257202
1579011930813,-0.0010681152,-0.0010681152,-0.004257202
1579011930818,-0.0053253174,-0.003189087,-0.0053253174
1579011930824,-0.004257202,-0.0010681152,-0.004257202
1579011930829,-0.003189087,-0.0021362305,-0.0063934326
1579011930834,-0.004257202,-0.0010681152,-0.0053253174
1579011930838,-0.003189087,-0.0010681152,-0.0053253174
1579011930845,-0.0021362305,-0.003189087,-0.003189087
1579011930849,-0.004257202,-0.003189087,-0.0063934326
1579011930855,-0.0021362305,-0.0010681152,-0.004257202
1579011930860,-0.004257202,0.0,-0.003189087
1579011930865,-0.0053253174,0.0,-0.004257202
1579011930870,-0.004257202,-0.0010681152,-0.0053253174
1579011930875,-0.003189087,-0.0021362305,-0.004257202
1579011930880,-0.0021362305,-0.0010681152,-0.004257202
1579011930885,-0.0021362305,-0.0010681152,-0.0021362305
1579011930890,-0.0010681152,-0.0010681152,-0.004257202
1579011930895,-0.0021362305,-0.0021362305,-0.0053253174
1579011930900,-0.004257202,-0.0021362305,-0.003189087
1579011930905,-0.003189087,-0.0010681152,-0.003189087
1579011930910,-0.003189087,-0.0021362305,-0.004257202
1579011930915,-0.004257202,-0.0010681152,-0.003189087
1579011930921,-0.003189087,-0.0010681152,-0.004257202
1579011930926,-0.0021362305,-0.0010681152,-0.004257202
1579011930930,-0.0021362305,-0.0021362305,-0.003189087
1579011930936,-0.0053253174,-0.003189087,-0.0053253174
1579011930941,-0.004257202,-0.003189087,-0.004257202
1579011930946,-0.0021362305,-0.003189087,-0.0053253174
1579011930951,-0.003189087,-0.0010681152,-0.0053253174
1579011930956,-0.0021362305,-0.0010681152,-0.0063934326
1579011930961,-0.003189087,0.0,-0.0053253174
1579011930965,-0.003189087,-0.0010681152,-0.003189087
1579011930970,-0.003189087,-0.0021362305,-0.003189087
1579011930975,-0.003189087,-0.003189087,-0.003189087
1579011930980,-0.004257202,-0.003189087,-0.004257202
1579011930985,-0.003189087,-0.0010681152,-0.004257202
1579011930992,-0.0021362305,-0.0021362305,-0.004257202
1579011930997,0.0,-0.003189087,-0.004257202
1579011931002,-0.004257202,-0.0021362305,-0.0053253174
1579011931007,-0.0053253174,-0.0021362305,-0.0053253174
1579011931011,-0.003189087,-0.0021362305,-0.003189087
1579011931017,-0.0021362305,-0.0021362305,-0.003189087
1579011931021,-0.003189087,-0.0021362305,-0.004257202
1579011931027,-0.0010681152,-0.0021362305,-0.004257202
1579011931032,-0.004257202,-0.0021362305,-0.003189087
1579011931036,-0.004257202,-0.004257202,-0.003189087
1579011931041,-0.003189087,-0.003189087,-0.0053253174
1579011931047,-0.003189087,-0.0021362305,-0.007461548
1579011931052,-0.004257202,-0.0010681152,-0.0053253174
1579011931057,-0.003189087,-0.0021362305,-0.004257202
1579011931062,-0.0021362305,-0.0021362305,-0.003189087
1579011931068,-0.004257202,-0.003189087,-0.004257202
1579011931073,-0.003189087,-0.0010681152,-0.0063934326
1579011931077,-0.0010681152,0.0,-0.004257202
1579011931083,-0.003189087,0.0,-0.0053253174
1579011931088,-0.003189087,-0.0021362305,-0.0053253174
1579011931093,-0.003189087,-0.0021362305,-0.003189087
1579011931098,-0.003189087,-0.0010681152,-0.004257202
1579011931103,-0.004257202,0.0,-0.0063934326
1579011931108,-0.0021362305,0.0,-0.0053253174
1579011931112,-0.0021362305,-0.0021362305,-0.0021362305
1579011931117,-0.004257202,-0.003189087,-0.0021362305
1579011931123,-0.003189087,-0.003189087,-0.0021362305
1579011931128,-0.0010681152,-0.0010681152,-0.004257202
1579011931132,-0.0021362305,0.0,-0.0063934326
1579011931139,-0.004257202,-0.0021362305,-0.0053253174
1579011931144,-0.003189087,-0.0021362305,-0.004257202
1579011931149,-0.0010681152,-0.0010681152,-0.003189087
1579011931153,-0.003189087,-0.0010681152,-0.003189087
1579011931159,-0.0021362305,-0.0021362305,-0.004257202
1579011931164,-0.003189087,-0.0021362305,-0.004257202
1579011931169,-0.0010681152,-0.0021362305,-0.0021362305
1579011931174,-0.0021362305,-0.0010681152,-0.003189087
1579011931178,-0.004257202,0.0,-0.0063934326
1579011931184,-0.003189087,0.0,-0.0053253174
1579011931188,-0.0021362305,-0.0021362305,-0.004257202
1579011931193,-0.0021362305,-0.0010681152,-0.004257202
1579011931198,-0.003189087,0.0,-0.003189087
1579011931204,-0.0053253174,-0.0021362305,-0.0053253174
1579011931209,-0.0021362305,-0.0010681152,-0.0053253174
1579011931214,-0.0021362305,-0.0010681152,-0.0053253174
1579011931220,-0.003189087,-0.003189087,-0.004257202
1579011931225,-0.0021362305,-0.0021362305,-0.0063934326
1579011931230,-0.0021362305,-0.0021362305,-0.0053253174
1579011931235,-0.0021362305,-0.003189087,-0.004257202
1579011931240,-0.003189087,-0.0010681152,-0.003189087
1579011931245,-0.003189087,-0.0010681152,-0.004257202
1579011931250,-0.0021362305,-0.0021362305,-0.0053253174
1579011931254,-0.003189087,-0.0021362305,-0.003189087
1579011931260,-0.003189087,-0.0021362305,-0.004257202
1579011931264,-0.0021362305,-0.0021362305,-0.004257202
1579011931269,-0.0010681152,-0.0010681152,-0.004257202
1579011931275,-0.0010681152,-0.0010681152,-0.0053253174
1579011931281,-0.003189087,-0.0021362305,-0.0053253174
1579011931286,-0.004257202,-0.003189087,-0.0063934326
1579011931290,-0.003189087,0.0,-0.003189087
1579011931296,-0.0021362305,-0.003189087,-0.0010681152
1579011931301,-0.003189087,-0.0021362305,-0.003189087
1579011931306,-0.0021362305,-0.0021362305,-0.003189087
1579011931311,-0.0010681152,-0.003189087,-0.003189087
1579011931316,-0.0021362305,-0.0021362305,-0.003189087
1579011931321,-0.003189087,-0.0010681152,-0.003189087
1579011931326,-0.003189087,-0.0021362305,-0.004257202
1579011931331,-0.003189087,-0.0010681152,-0.003189087
1579011931336,-0.0021362305,0.0,-0.004257202
1579011931341,-0.003189087,-0.0010681152,-0.004257202
1579011931346,-0.003189087,-0.0010681152,-0.0063934326
1579011931350,-0.004257202,-0.003189087,-0.004257202
1579011931357,-0.0021362305,-0.003189087,-0.003189087
1579011931362,-0.0021362305,-0.0021362305,-0.004257202
1579011931367,-0.003189087,-0.0010681152,-0.0053253174
1579011931372,-0.003189087,0.0010681152,-0.004257202
1579011931376,-0.003189087,-0.0010681152,-0.0053253174
1579011931382,-0.0021362305,-0.0021362305,-0.004257202
1579011931387,-0.003189087,0.0,-0.004257202
1579011931391,-0.003189087,-0.0010681152,-0.004257202
1579011931397,-0.003189087,-0.003189087,-0.004257202
1579011931401,-0.004257202,-0.004257202,-0.0053253174
1579011931406,-0.0053253174,-0.0021362305,-0.0053253174
1579011931411,-0.003189087,-0.0021362305,-0.004257202
1579011931417,-0.003189087,-0.0010681152,-0.0063934326
1579011931422,-0.003189087,-0.0010681152,-0.0063934326
1579011931427,-0.003189087,-0.004257202,-0.0053253174
1579011931433,-0.0021362305,-0.0021362305,-0.0053253174
1579011931438,-0.003189087,-0.0021362305,-0.0053253174
1579011931442,-0.0021362305,-0.003189087,-0.0053253174
1579011931448,-0.0021362305,-0.003189087,-0.004257202
1579011931453,-0.0010681152,-0.0021362305,-0.004257202
1579011931457,-0.0021362305,-0.0010681152,-0.004257202
1579011931463,-0.0021362305,-0.0021362305,-0.0053253174
1579011931467,-0.003189087,-0.0021362305,-0.0053253174
1579011931472,-0.003189087,-0.0021362305,-0.004257202
1579011931478,-0.003189087,-0.0021362305,-0.004257202
1579011931483,-0.003189087,-0.0021362305,-0.0053253174
1579011931488,-0.0021362305,-0.0021362305,-0.004257202
1579011931493,-0.0021362305,-0.0021362305,-0.004257202
1579011931499,-0.003189087,-0.0010681152,-0.004257202
1579011931504,-0.0010681152,-0.003189087,-0.0021362305
1579011931509,-0.0021362305,0.0010681152,-0.0021362305
1579011931513,-0.0010681152,0.0010681152,-0.003189087
1579011931519,-0.004257202,-0.0010681152,-0.0021362305
1579011931523,-0.004257202,-0.0021362305,-0.0021362305
1579011931529,-0.003189087,-0.003189087,-0.0053253174
1579011931533,-0.004257202,-0.0010681152,-0.004257202
1579011931539,-0.004257202,-0.0010681152,-0.0010681152
1579011931543,-0.004257202,-0.0010681152,-0.0021362305
1579011931548,-0.0021362305,-0.0021362305,-0.0021362305
1579011931553,-0.003189087,-0.0021362305,-0.0053253174
1579011931559,-0.003189087,-0.0010681152,-0.0053253174
1579011931564,-0.004257202,-0.0021362305,-0.004257202
1579011931570,-0.003189087,-0.004257202,-0.004257202
1579011931575,-0.0021362305,-0.0021362305,-0.0053253174
1579011931580,-0.003189087,-0.0010681152,-0.004257202
1579011931584,-0.0021362305,-0.0010681152,-0.0053253174
1579011931590,-0.0010681152,-0.0010681152,-0.004257202
1579011931594,-0.0021362305,-0.0021362305,-0.004257202
1579011931600,-0.0021362305,-0.0021362305,-0.0053253174
1579011931605,-0.0021362305,-0.0021362305,-0.0063934326
1579011931609,-0.003189087,-0.0010681152,-0.004257202
1579011931615,-0.0021362305,-0.0010681152,-0.004257202
1579011931619,-0.0010681152,-0.0021362305,-0.0063934326
1579011931625,-0.0021362305,-0.0021362305,-0.0063934326
1579011931630,-0.003189087,-0.0010681152,-0.004257202
1579011931635,-0.0021362305,-0.0010681152,-0.004257202
1579011931640,-0.004257202,-0.0010681152,-0.003189087
1579011931646,-0.0053253174,0.0,-0.003189087
1579011931650,-0.0021362305,-0.0021362305,-0.004257202
1579011931655,-0.0021362305,-0.0010681152,-0.003189087
1579011931661,-0.0021362305,-0.0021362305,-0.003189087
1579011931666,-0.003189087,-0.004257202,-0.004257202
1579011931671,-0.003189087,-0.0010681152,-0.003189087
1579011931675,-0.003189087,-0.0021362305,-0.0053253174
1579011931680,-0.003189087,-0.0021362305,-0.003189087
1579011931686,-0.003189087,-0.0010681152,-0.004257202
1579011931691,-0.0021362305,-0.003189087,-0.007461548
1579011931696,-0.003189087,-0.003189087,-0.003189087
1579011931700,-0.003189087,-0.0021362305,-0.004257202
1579011931705,-0.004257202,0.0010681152,-0.0010681152
1579011931711,-0.003189087,-0.0021362305,-0.003189087
1579011931716,-0.0021362305,0.0,-0.003189087
1579011931721,-0.0010681152,0.0,-0.0021362305
1579011931726,-0.003189087,-0.0021362305,-0.003189087
1579011931731,-0.003189087,-0.003189087,-0.0053253174
1579011931737,-0.003189087,-0.0021362305,-0.004257202
1579011931742,-0.003189087,-0.0010681152,-0.004257202
1579011931747,-0.004257202,-0.003189087,-0.004257202
1579011931751,-0.003189087,-0.003189087,-0.004257202
1579011931757,-0.003189087,-0.0010681152,-0.004257202
1579011931761,-0.0053253174,-0.0021362305,-0.004257202
1579011931767,-0.003189087,-0.003189087,-0.0021362305
1579011931772,0.0,0.0,-0.003189087
1579011931776,-0.004257202,0.0,-0.004257202
1579011931781,-0.004257202,0.0,-0.0053253174
1579011931787,-0.003189087,-0.0010681152,-0.003189087
1579011931792,-0.0021362305,-0.0010681152,-0.003189087
1579011931797,-0.003189087,-0.003189087,-0.0021362305
1579011931803,-0.003189087,-0.003189087,-0.0053253174
1579011931808,-0.003189087,0.0,-0.004257202
1579011931812,-0.0021362305,-0.0021362305,-0.003189087
1579011931818,-0.0021362305,-0.003189087,-0.0053253174
1579011931823,-0.0021362305,-0.0021362305,-0.004257202
1579011931828,-0.0021362305,-0.0021362305,-0.004257202
1579011931833,-0.0021362305,-0.0010681152,-0.004257202
1579011931837,0.0,-0.0010681152,-0.003189087
1579011931843,-0.004257202,-0.003189087,-0.004257202
1579011931847,-0.003189087,-0.0021362305,-0.003189087
1579011931853,-0.003189087,-0.0010681152,-0.004257202
1579011931858,-0.004257202,0.0,-0.0053253174
1579011931864,-0.004257202,0.0,-0.0021362305
1579011931869,-0.0021362305,-0.0010681152,-0.0021362305
1579011931874,-0.0021362305,-0.0021362305,-0.0021362305
1579011931879,-0.0021362305,-0.0021362305,-0.0053253174
1579011931884,-0.003189087,-0.003189087,-0.004257202
1579011931889,-0.0053253174,-0.003189087,-0.003189087
1579011931894,-0.0021362305,-0.0021362305,-0.004257202
1579011931899,-0.003189087,-0.0021362305,-0.0053253174
1579011931903,-0.004257202,-0.0021362305,-0.0053253174
1579011931908,-0.0053253174,-0.0010681152,-0.003189087
1579011931913,-0.0021362305,0.0,-0.004257202
1579011931919,-0.0021362305,-0.0010681152,-0.0053253174
1579011931924,-0.003189087,-0.0010681152,-0.004257202
1579011931929,-0.0010681152,0.0,-0.0053253174
1579011931934,-0.003189087,-0.003189087,-0.004257202
1579011931940,-0.003189087,-0.003189087,-0.003189087
1579011931944,-0.0021362305,-0.0010681152,-0.0053253174
1579011931950,-0.003189087,-0.0010681152,-0.0053253174
1579011931954,-0.003189087,-0.0010681152,-0.003189087
1579011931959,-0.0053253174,-0.0010681152,-0.004257202
1579011931964,-0.0053253174,0.0,-0.0053253174
1579011931970,-0.0021362305,-0.0010681152,-0.003189087
1579011931975,-0.003189087,-0.0021362305,-0.003189087
1579011931980,-0.004257202,-0.0021362305,-0.004257202
1579011931985,-0.003189087,-0.0021362305,-0.004257202
1579011931989,-0.0021362305,-0.0021362305,-0.004257202
1579011931994,-0.0021362305,0.0,-0.0053253174
1579011932000,-0.003189087,-0.0021362305,-0.0053253174
1579011932006,-0.0010681152,-0.003189087,-0.0053253174
1579011932011,-0.004257202,-0.0021362305,-0.007461548
1579011932015,-0.004257202,-0.0010681152,-0.0053253174
1579011932021,-0.004257202,-0.003189087,-0.004257202
1579011932026,-0.003189087,-0.0010681152,-0.004257202
1579011932031,-0.0021362305,-0.0010681152,-0.004257202
1579011932036,-0.004257202,-0.0010681152,-0.0053253174
1579011932041,-0.004257202,-0.0010681152,-0.004257202
1579011932046,-0.004257202,-0.0021362305,-0.003189087
1579011932050,-0.003189087,-0.0021362305,-0.003189087
1579011932055,-0.0021362305,-0.003189087,-0.004257202
1579011932061,-0.0010681152,-0.0021362305,-0.004257202
1579011932065,-0.0021362305,-0.0010681152,-0.004257202
1579011932070,-0.003189087,-0.0010681152,-0.003189087
1579011932076,-0.003189087,-0.004257202,-0.003189087
1579011932081,-0.003189087,-0.0021362305,-0.003189087
1579011932086,-0.0021362305,-0.0021362305,-0.004257202
1579011932091,-0.003189087,-0.0021362305,-0.004257202
1579011932096,-0.0010681152,-0.0010681152,-0.003189087
1579011932102,-0.0021362305,-0.003189087,-0.003189087
1579011932106,-0.003189087,-0.003189087,-0.0063934326
1579011932111,-0.003189087,-0.003189087,-0.0063934326
1579011932116,-0.003189087,-0.0010681152,-0.0053253174
1579011932122,-0.003189087,-0.0010681152,-0.0053253174
1579011932127,-0.0010681152,0.0,-0.0053253174
1579011932131,0.0,-0.0021362305,-0.003189087
1579011932137,-0.0010681152,-0.0010681152,-0.004257202
1579011932142,-0.0010681152,-0.003189087,-0.003189087
1579011932146,-0.003189087,-0.003189087,-0.004257202
1579011932152,-0.003189087,-0.0021362305,-0.004257202
1579011932158,-0.0010681152,-0.0021362305,-0.0053253174
1579011932163,-0.0010681152,-0.0021362305,-0.003189087
1579011932168,-0.003189087,-0.0021362305,-0.003189087
1579011932173,-0.003189087,-0.0021362305,-0.004257202
1579011932178,-0.0021362305,-0.0021362305,-0.003189087
1579011932183,-0.003189087,-0.0021362305,-0.004257202
1579011932187,-0.0021362305,-0.0021362305,-0.003189087
1579011932193,-0.003189087,-0.0021362305,-0.0053253174
1579011932197,-0.004257202,-0.0021362305,-0.0053253174
1579011932202,-0.004257202,-0.0021362305,-0.004257202
1579011932208,-0.0021362305,-0.0021362305,-0.0021362305
1579011932213,-0.0021362305,-0.0021362305,-0.004257202
1579011932217,-0.0021362305,-0.0021362305,-0.003189087
1579011932223,-0.0021362305,-0.0010681152,-0.004257202
1579011932228,-0.003189087,-0.003189087,-0.003189087
1579011932234,-0.0021362305,-0.0021362305,-0.003189087
1579011932239,-0.0021362305,0.0,-0.003189087
1579011932244,-0.004257202,-0.0021362305,-0.0053253174
1579011932248,-0.003189087,-0.003189087,-0.004257202
1579011932254,-0.003189087,-0.0021362305,-0.0010681152
1579011932258,-0.0053253174,-0.0010681152,-0.003189087
1579011932264,-0.003189087,-0.003189087,-0.003189087
1579011932268,-0.0021362305,-0.003189087,-0.003189087
1579011932273,-0.0010681152,-0.0021362305,-0.004257202
1579011932279,-0.0021362305,-0.0010681152,-0.0053253174
1579011932284,-0.0010681152,-0.0021362305,-0.004257202
1579011932289,-0.0010681152,-0.003189087,-0.004257202
1579011932293,-0.003189087,-0.0010681152,-0.004257202
1579011932300,-0.0021362305,-0.003189087,-0.0053253174
1579011932305,-0.004257202,-0.0021362305,-0.003189087
1579011932310,-0.0021362305,-0.004257202,-0.004257202
1579011932314,-0.0021362305,-0.0021362305,-0.004257202
1579011932319,-0.003189087,-0.003189087,-0.0053253174
1579011932325,-0.003189087,-0.0021362305,-0.004257202
1579011932330,-0.003189087,-0.0010681152,-0.004257202
1579011932334,-0.0021362305,-0.0021362305,-0.004257202
1579011932339,-0.0021362305,-0.0021362305,-0.0010681152
1579011932345,-0.0063934326,-0.003189087,-0.003189087
1579011932350,-0.0021362305,-0.0010681152,-0.0053253174
1579011932354,-0.0021362305,-0.003189087,-0.0053253174
1579011932360,-0.003189087,-0.0010681152,-0.0063934326
1579011932364,-0.0053253174,0.0,-0.004257202
1579011932371,-0.003189087,-0.0010681152,-0.004257202
1579011932376,-0.003189087,-0.0021362305,-0.0053253174
1579011932381,-0.0021362305,-0.0021362305,-0.004257202
1579011932385,-0.0021362305,-0.0010681152,-0.003189087
1579011932390,-0.0010681152,-0.0021362305,-0.003189087
1579011932396,-0.003189087,-0.0021362305,-0.0063934326
1579011932400,-0.0021362305,-0.0010681152,-0.0053253174
1579011932405,-0.004257202,-0.0010681152,-0.0053253174
1579011932411,-0.0063934326,-0.0021362305,-0.0053253174
1579011932416,-0.004257202,-0.003189087,-0.0063934326
1579011932421,-0.003189087,-0.0021362305,-0.007461548
1579011932425,-0.004257202,-0.003189087,-0.0053253174
1579011932430,-0.003189087,-0.0010681152,-0.0053253174
1579011932436,-0.003189087,-0.0010681152,-0.004257202
1579011932442,-0.003189087,-0.0010681152,-0.0021362305
1579011932447,-0.0010681152,-0.0021362305,-0.004257202
1579011932452,0.0,-0.0010681152,-0.003189087
1579011932457,-0.0021362305,-0.0021362305,-0.0063934326
1579011932462,-0.0021362305,-0.0021362305,-0.004257202
1579011932467,-0.0021362305,-0.0010681152,-0.004257202
1579011932472,-0.004257202,-0.0021362305,-0.004257202
1579011932476,-0.0063934326,-0.0010681152,-0.003189087
1579011932482,-0.004257202,-0.0010681152,-0.003189087
1579011932487,-0.0010681152,-0.0021362305,-0.004257202
1579011932492,-0.003189087,-0.0021362305,-0.004257202
1579011932497,-0.003189087,-0.0010681152,-0.004257202
1579011932501,-0.0010681152,-0.0010681152,-0.0053253174
1579011932507,-0.0010681152,-0.0021362305,-0.0053253174
1579011932512,-0.004257202,-0.0021362305,-0.0053253174
1579011932518,-0.0053253174,-0.0021362305,-0.0053253174
1579011932522,-0.004257202,-0.0010681152,-0.003189087
1579011932528,-0.0010681152,-0.0021362305,-0.003189087
1579011932533,-0.003189087,-0.003189087,-0.0063934326
1579011932538,-0.0010681152,-0.0021362305,-0.0053253174
1579011932543,-0.0021362305,-0.0021362305,-0.003189087
1579011932548,-0.0021362305,-0.003189087,-0.0053253174
1579011932552,-0.0021362305,-0.003189087,-0.004257202
1579011932557,-0.004257202,-0.0021362305,-0.004257202
1579011932563,-0.0021362305,-0.0021362305,-0.004257202
1579011932568,-0.003189087,-0.0010681152,-0.003189087
1579011932572,-0.003189087,-0.0021362305,-0.004257202
1579011932577,-0.0021362305,-0.0021362305,-0.004257202
1579011932583,-0.0021362305,-0.0021362305,-0.003189087
1579011932588,-0.0021362305,-0.0021362305,-0.004257202
1579011932594,-0.0021362305,-0.0010681152,-0.004257202
1579011932599,-0.003189087,-0.0010681152,-0.004257202
1579011932604,-0.0021362305,-0.003189087,-0.004257202
1579011932609,-0.0010681152,-0.0021362305,-0.0053253174
1579011932614,-0.003189087,-0.0021362305,-0.0053253174
1579011932618,-0.0021362305,-0.0010681152,-0.0053253174
1579011932623,-0.0010681152,-0.003189087,-0.0053253174
1579011932628,-0.003189087,-0.0021362305,-0.0053253174
1579011932634,-0.003189087,-0.003189087,-0.003189087
1579011932639,-0.003189087,-0.0021362305,-0.004257202
1579011932644,-0.003189087,-0.0021362305,-0.003189087
1579011932649,-0.003189087,-0.003189087,-0.003189087
1579011932654,-0.0021362305,-0.0021362305,-0.004257202
1579011932659,-0.0021362305,-0.003189087,-0.0053253174
1579011932665,-0.0021362305,-0.003189087,-0.0053253174
1579011932670,-0.0021362305,-0.003189087,-0.004257202
1579011932675,0.0,-0.0021362305,-0.003189087
1579011932680,-0.0021362305,-0.0010681152,-0.0063934326
1579011932685,-0.004257202,-0.003189087,-0.004257202
1579011932690,-0.0021362305,-0.0021362305,-0.0021362305
1579011932694,-0.0021362305,-0.003189087,-0.003189087
1579011932700,-0.004257202,-0.0021362305,-0.0063934326
1579011932705,-0.003189087,-0.0010681152,-0.0053253174
1579011932710,-0.0021362305,0.0,-0.004257202
1579011932715,-0.0021362305,0.0,-0.004257202
1579011932720,-0.0021362305,-0.0010681152,-0.003189087
1579011932724,-0.003189087,0.0010681152,-0.004257202
1579011932730,-0.004257202,-0.0010681152,-0.004257202
1579011932736,-0.0010681152,-0.0021362305,-0.004257202
1579011932741,-0.0010681152,-0.003189087,-0.004257202
1579011932746,-0.004257202,-0.0010681152,-0.004257202
1579011932751,-0.0021362305,0.0,-0.0053253174
1579011932756,-0.0010681152,-0.003189087,-0.0053253174
1579011932761,-0.0021362305,-0.0021362305,-0.003189087
1579011932766,-0.003189087,-0.0010681152,-0.0063934326
1579011932770,-0.004257202,-0.003189087,-0.0053253174
1579011932776,-0.003189087,-0.0021362305,-0.004257202
1579011932781,-0.003189087,-0.0021362305,-0.004257202
1579011932785,-0.003189087,-0.0021362305,-0.0053253174
1579011932791,-0.0021362305,-0.0010681152,-0.0053253174
1579011932795,-0.0010681152,-0.0021362305,-0.0063934326
1579011932801,-0.0010681152,-0.0010681152,-0.0053253174
1579011932807,-0.0021362305,-0.0021362305,-0.004257202
1579011932811,-0.004257202,-0.0021362305,-0.0053253174
1579011932817,-0.0021362305,-0.0010681152,-0.004257202
1579011932821,0.0,-0.0010681152,-0.003189087
1579011932827,-0.0021362305,0.0,-0.0053253174
1579011932832,-0.003189087,-0.0010681152,-0.004257202
1579011932836,-0.003189087,-0.0021362305,-0.0063934326
1579011932842,-0.0010681152,-0.0021362305,-0.004257202
1579011932846,-0.0021362305,-0.0010681152,-0.0021362305
1579011932851,-0.0021362305,-0.0010681152,-0.003189087
1579011932857,-0.004257202,-0.0021362305,-0.004257202
1579011932861,-0.003189087,-0.0021362305,0.0
1579011932867,-0.003189087,-0.0021362305,-0.004257202
1579011932872,-0.004257202,-0.0021362305,-0.004257202
1579011932876,-0.004257202,-0.003189087,-0.004257202
1579011932882,-0.004257202,-0.003189087,-0.004257202
1579011932887,-0.0021362305,-0.0021362305,-0.0053253174
1579011932892,-0.003189087,-0.0021362305,-0.004257202
1579011932898,-0.003189087,-0.003189087,-0.003189087
1579011932902,-0.003189087,-0.0021362305,-0.004257202
1579011932908,-0.003189087,-0.003189087,-0.004257202
1579011932912,-0.0021362305,-0.003189087,-0.004257202
1579011932918,-0.004257202,-0.0021362305,-0.003189087
1579011932923,-0.0021362305,-0.0010681152,-0.003189087
1579011932928,-0.0021362305,0.0,-0.004257202
1579011932933,-0.0021362305,-0.0010681152,-0.0053253174
1579011932937,-0.0010681152,-0.0010681152,-0.0053253174
1579011932943,-0.0021362305,-0.003189087,-0.004257202
1579011932947,-0.003189087,-0.003189087,-0.0021362305
1579011932954,-0.0010681152,-0.003189087,-0.0021362305
1579011932958,-0.0021362305,-0.0010681152,-0.003189087
1579011932963,-0.004257202,-0.0021362305,-0.004257202
1579011932969,-0.0021362305,-0.0010681152,-0.0053253174
1579011932974,-0.004257202,-0.0021362305,-0.0053253174
1579011932978,-0.003189087,-0.003189087,-0.0053253174
1579011932984,-0.003189087,-0.0021362305,-0.003189087
1579011932989,-0.004257202,0.0,-0.003189087
1579011932994,-0.003189087,0.0,-0.003189087
1579011932999,-0.0021362305,-0.0021362305,-0.004257202
1579011933004,-0.003189087,-0.0021362305,-0.003189087
1579011933008,-0.003189087,-0.003189087,-0.0053253174
1579011933013,-0.0021362305,-0.0021362305,-0.003189087
1579011933019,-0.0021362305,-0.0021362305,-0.004257202
1579011933024,-0.003189087,-0.0021362305,-0.0053253174
1579011933029,-0.004257202,-0.0021362305,-0.0053253174
1579011933034,-0.004257202,-0.0010681152,-0.0053253174
1579011933040,-0.0010681152,-0.0010681152,-0.0063934326
1579011933044,-0.0010681152,-0.0010681152,-0.0063934326
1579011933049,-0.0021362305,-0.0021362305,-0.0053253174
1579011933055,-0.003189087,-0.0010681152,-0.003189087
1579011933060,-0.003189087,-0.0021362305,-0.004257202
1579011933065,-0.0021362305,-0.0021362305,-0.003189087
1579011933070,-0.0021362305,-0.0021362305,-0.004257202
1579011933075,-0.0021362305,-0.0021362305,-0.004257202
1579011933079,-0.0021362305,-0.0021362305,-0.004257202
1579011933084,-0.003189087,-0.0021362305,-0.0053253174
1579011933090,-0.0021362305,-0.003189087,-0.004257202
1579011933096,-0.003189087,-0.003189087,-0.0053253174
1579011933101,-0.0021362305,-0.0021362305,-0.003189087
1579011933106,-0.0021362305,-0.0021362305,-0.003189087
1579011933111,-0.003189087,-0.0010681152,-0.0053253174
1579011933115,-0.0021362305,-0.0010681152,-0.004257202
1579011933120,-0.004257202,0.0,-0.0053253174
1579011933125,-0.003189087,0.0,-0.004257202
1579011933130,-0.0010681152,-0.0010681152,-0.004257202
1579011933136,-0.004257202,-0.0010681152,-0.003189087
1579011933141,-0.003189087,0.0,-0.0053253174
1579011933146,-0.003189087,0.0021362305,-0.004257202
1579011933151,-0.003189087,-0.0010681152,-0.004257202
1579011933156,-0.003189087,-0.0021362305,-0.003189087
1579011933161,-0.003189087,-0.0021362305,-0.004257202
1579011933166,-0.0053253174,-0.0021362305,-0.004257202
1579011933171,-0.004257202,-0.0021362305,-0.0053253174
1579011933177,-0.003189087,-0.0021362305,-0.004257202
1579011933182,0.0,-0.0021362305,-0.0053253174
1579011933187,-0.003189087,-0.0021362305,-0.004257202
1579011933192,-0.004257202,0.0,-0.004257202
1579011933196,-0.003189087,-0.0010681152,-0.0063934326
1579011933201,-0.0021362305,-0.0021362305,-0.004257202
1579011933206,-0.0021362305,-0.0021362305,-0.004257202
